SpectraSuite Data File
++++++++++++++++++++++++++++++++++++
Date: Tue Feb 05 15:00:13 EET 2019
User: demo
Dark Spectrum Present: Yes
Reference Spectrum Present: Yes
Number of Sampled Component Spectra: 1
Spectrometers: USB4H03366
Integration Time (usec): 20000000 (USB4H03366)
Spectra Averaged: 1 (USB4H03366)
Boxcar Smoothing: 0 (USB4H03366)
Correct for Electrical Dark: No (USB4H03366)
Strobe/Lamp Enabled: No (USB4H03366)
Correct for Detector Non-linearity: No (USB4H03366)
Correct for Stray Light: No (USB4H03366)
Number of Pixels in Processed Spectrum: 3648
>>>>>Begin Processed Spectral Data<<<<<
291.48	-55.30
291.93	-55.30
292.37	-55.30
292.82	-63.49
293.26	-51.20
293.70	57.34
294.15	-67.58
294.59	114.69
295.04	116.73
295.48	49.15
295.93	-122.88
296.37	-75.77
296.82	-90.11
297.26	110.59
297.71	161.79
298.15	116.73
298.59	71.68
299.04	10.24
299.48	-114.69
299.93	30.72
300.37	79.87
300.82	137.21
301.26	22.53
301.70	-98.30
302.15	206.84
302.59	-69.63
303.04	-96.25
303.48	-143.36
303.92	49.15
304.37	18.43
304.81	-139.26
305.26	690.17
305.70	180.22
306.14	167.93
306.59	-38.91
307.03	98.30
307.47	192.51
307.92	-2.05
308.36	114.69
308.81	-32.77
309.25	59.39
309.69	530.42
310.14	1488.87
310.58	151.55
311.02	-114.69
311.47	186.37
311.91	8.19
312.36	30.72
312.80	-43.01
313.24	-2.05
313.69	32.77
314.13	34.82
314.57	20.48
315.02	98.30
315.46	-98.30
315.90	86.01
316.35	-106.49
316.79	212.99
317.23	178.17
317.68	145.41
318.12	137.21
318.56	45.06
319.00	-32.77
319.45	-120.83
319.89	14.34
320.33	75.77
320.78	294.91
321.22	98.30
321.66	-59.39
322.11	202.75
322.55	305.15
322.99	-184.32
323.43	139.26
323.88	45.06
324.32	32.77
324.76	172.03
325.21	-45.06
325.65	65.53
326.09	231.42
326.53	90.11
326.98	153.60
327.42	-2.05
327.86	204.80
328.30	104.45
328.75	-90.11
329.19	-34.82
329.63	63.49
330.07	655.35
330.52	249.85
330.96	118.78
331.40	165.89
331.84	8.19
332.29	157.69
332.73	251.90
333.17	-16.38
333.61	98.30
334.05	102.40
334.50	2.05
334.94	47.10
335.38	178.17
335.82	59.39
336.27	79.87
336.71	350.20
337.15	169.98
337.59	-133.12
338.03	67.58
338.47	16.38
338.92	67.58
339.36	8.19
339.80	-94.21
340.24	-90.11
340.68	-155.65
341.13	110.59
341.57	75.77
342.01	-30.72
342.45	-22.53
342.89	204.80
343.33	77.82
343.78	-161.79
344.22	337.91
344.66	172.03
345.10	-182.27
345.54	307.20
345.98	137.21
346.43	124.93
346.87	133.12
347.31	147.45
347.75	22.53
348.19	-88.06
348.63	225.28
349.07	-22.53
349.51	14.34
349.96	260.09
350.40	-43.01
350.84	51.20
351.28	106.49
351.72	380.92
352.16	18.43
352.60	165.89
353.04	104.45
353.49	-28.67
353.93	-100.35
354.37	73.73
354.81	53.25
355.25	38.91
355.69	-116.73
356.13	61.44
356.57	77.82
357.01	-8.19
357.45	22.53
357.89	67.58
358.33	362.49
358.78	-55.30
359.22	83.97
359.66	108.54
360.10	81.92
360.54	114.69
360.98	157.69
361.42	-118.78
361.86	204.80
362.30	116.73
362.74	-20.48
363.18	102.40
363.62	53.25
364.06	-65.53
364.50	268.28
364.94	34.82
365.38	-12.29
365.82	-143.36
366.26	-30.72
366.70	55.30
367.14	-83.97
367.58	196.61
368.02	-51.20
368.46	196.60
368.90	194.56
369.34	-458.74
369.78	20.48
370.22	186.37
370.66	321.53
371.10	178.17
371.54	135.17
371.98	124.93
372.42	43.01
372.86	-83.97
373.30	305.15
373.74	-18.43
374.18	163.84
374.62	77.82
375.06	108.54
375.50	75.77
375.94	-137.21
376.38	-32.77
376.82	858.10
377.26	147.45
377.70	344.06
378.14	225.28
378.58	-174.08
379.02	239.61
379.46	77.82
379.90	129.02
380.34	196.61
380.78	223.23
381.22	147.45
381.66	235.52
382.10	92.16
382.53	212.99
382.97	260.09
383.41	118.78
383.85	90.11
384.29	286.72
384.73	124.93
385.17	323.58
385.61	305.15
386.05	38.91
386.49	55.30
386.93	86.01
387.36	118.78
387.80	16.38
388.24	137.21
388.68	-10.24
389.12	-14.34
389.56	196.60
390.00	172.03
390.44	124.93
390.88	96.25
391.31	137.21
391.75	94.21
392.19	227.32
392.63	198.65
393.07	-2551.77
393.51	434.17
393.95	8.19
394.39	-505.85
394.82	-100.35
395.26	202.75
395.70	-94.21
396.14	81.92
396.58	16.38
397.02	61.44
397.45	229.37
397.89	182.27
398.33	227.32
398.77	131.07
399.21	239.61
399.65	473.08
400.08	217.08
400.52	364.54
400.96	116.73
401.40	210.94
401.84	149.50
402.27	75.77
402.71	376.83
403.15	163.84
403.59	286.72
404.03	174.08
404.46	319.48
404.90	253.95
405.34	282.62
405.78	126.97
406.22	131.07
406.65	268.28
407.09	231.42
407.53	313.34
407.97	88.06
408.40	196.61
408.84	217.08
409.28	471.03
409.72	382.97
410.16	239.61
410.59	120.83
411.03	43.01
411.47	219.13
411.91	497.66
412.34	169.98
412.78	116.73
413.22	358.39
413.66	319.48
414.09	540.66
414.53	604.15
414.97	421.88
415.40	391.16
415.84	540.66
416.28	559.10
416.72	354.30
417.15	266.24
417.59	395.26
418.03	587.77
418.46	550.90
418.90	516.09
419.34	563.19
419.78	342.01
420.21	798.71
420.65	622.58
421.09	565.24
421.52	532.47
421.96	733.17
422.40	630.77
422.83	767.99
423.27	602.10
423.71	688.12
424.14	720.89
424.58	686.07
425.02	849.91
425.45	690.17
425.89	837.62
426.33	643.06
426.76	583.67
427.20	690.17
427.64	804.85
428.07	749.56
428.51	677.88
428.95	806.90
429.38	1011.70
429.82	749.56
430.26	894.96
430.69	878.58
431.13	796.66
431.57	966.64
432.00	1050.61
432.44	1093.62
432.87	1081.33
433.31	1023.98
433.75	989.17
434.18	1013.74
434.62	1292.27
435.05	1001.46
435.49	1042.42
435.93	823.28
436.36	1292.27
436.80	845.81
437.23	1081.33
437.67	1112.05
438.11	1189.87
438.54	1533.93
438.98	1339.37
439.41	1384.43
439.85	1372.14
440.29	1183.73
440.72	1161.20
441.16	1415.15
441.59	1134.57
442.03	1284.08
442.46	1292.27
442.90	1122.29
443.34	1787.88
443.77	1441.77
444.21	1632.23
444.64	1603.56
445.08	1544.17
445.51	1767.40
445.95	1642.47
446.38	1812.45
446.82	1808.36
447.25	1560.55
447.69	1906.66
448.13	1720.29
448.56	1816.55
449.00	3993.54
449.43	1763.30
449.87	1726.44
450.30	1955.81
450.74	2058.21
451.17	2152.42
451.61	2170.85
452.04	1861.60
452.48	2166.75
452.91	2271.20
453.35	2256.86
453.78	2090.98
454.22	2230.24
454.65	2365.40
455.09	2320.35
455.52	2711.51
455.96	2346.97
456.39	2412.51
456.83	2893.78
457.26	2660.31
457.69	2648.02
458.13	2555.86
458.56	2938.84
459.00	2541.53
459.43	2772.95
459.87	2764.76
460.30	3149.78
460.74	3071.95
461.17	2723.80
461.61	3313.61
462.04	3188.69
462.47	3106.77
462.91	3153.87
463.34	3106.77
463.78	3411.92
464.21	3413.96
464.65	3358.67
465.08	3577.80
465.51	3610.57
465.95	3569.61
466.38	3702.73
466.82	3846.09
467.25	4280.25
467.69	4143.04
468.12	4024.26
468.55	4163.52
468.99	4054.98
469.42	4530.11
469.86	4444.09
470.29	4786.10
470.72	3442.64
471.16	4687.80
471.59	4911.03
472.03	4931.51
472.46	5021.62
472.89	5072.82
473.33	5298.10
473.76	5285.81
474.19	5287.86
474.63	4980.66
475.06	5746.60
475.49	5930.92
475.93	5783.46
476.36	6053.80
476.80	6416.29
477.23	6315.94
477.66	6203.30
478.10	6739.87
478.53	6887.32
478.96	6801.30
479.40	6995.86
479.83	7458.70
480.26	6954.90
480.70	7301.01
481.13	7724.94
481.56	7671.69
482.00	7399.31
482.43	7993.22
482.86	7696.27
483.30	7747.47
483.73	7997.32
484.16	8402.82
484.59	8204.16
485.03	8920.95
485.46	9097.08
485.89	8961.91
486.33	9369.46
486.76	9377.65
487.19	9494.38
487.63	9547.63
488.06	9252.72
488.49	9707.37
488.92	9406.32
489.36	10323.81
489.79	10221.41
490.22	10055.53
490.65	9748.33
491.09	10786.65
491.52	10430.30
491.95	11024.22
492.38	10854.23
492.82	11513.68
493.25	11235.16
493.68	11026.26
494.11	11528.02
494.55	11632.46
494.98	11538.26
495.41	11796.30
495.84	12046.15
496.28	11732.81
496.71	12283.72
497.14	11974.47
497.57	12109.64
498.01	11982.67
498.44	12429.12
498.87	12310.34
499.30	12525.38
499.73	12181.32
500.17	12379.97
500.60	12390.21
501.03	12580.67
501.46	12941.11
501.89	12767.04
502.33	13289.27
502.76	13053.75
503.19	13252.41
503.62	13815.60
504.05	13631.28
504.49	13537.07
504.92	13627.18
505.35	13967.15
505.78	13094.71
506.21	13639.47
506.64	13977.39
507.08	13678.38
507.51	14331.69
507.94	14073.64
508.37	14116.65
508.80	14708.51
509.23	14704.42
509.67	13840.17
510.10	14726.94
510.53	15204.12
510.96	15130.39
511.39	14530.34
511.82	15560.47
512.25	15466.26
512.69	15210.26
513.12	15445.78
513.55	15861.52
513.98	15468.31
514.41	15781.65
514.84	15990.54
515.27	15632.15
515.70	16207.62
516.14	15853.33
516.57	16054.03
517.00	16062.22
517.43	16078.60
517.86	16512.77
518.29	15607.57
518.72	16221.96
519.15	16381.70
519.58	15963.92
520.01	16281.35
520.45	16633.60
520.88	16641.79
521.31	16533.25
521.74	16523.01
522.17	16826.11
522.60	16840.45
523.03	16709.38
523.46	16234.25
523.89	16957.18
524.32	17043.20
524.75	17315.58
525.18	17084.16
525.61	17235.70
526.04	17350.39
526.47	17426.17
526.90	17317.62
527.33	17520.37
527.77	17530.61
528.20	17536.76
528.63	17420.02
529.06	17258.23
529.49	17006.33
529.92	17802.99
530.35	17399.54
530.78	17481.46
531.21	18052.84
531.64	17563.38
532.07	17645.30
532.50	17630.96
532.93	17549.04
533.36	17772.27
533.79	17938.16
534.22	18099.95
534.65	17966.83
535.08	18247.40
535.51	18357.99
535.94	17917.68
536.37	17997.55
536.80	18415.34
537.23	17946.35
537.66	18534.12
538.09	17778.42
538.52	18384.62
538.95	17995.50
539.38	18579.17
539.81	18474.73
540.24	18585.32
540.66	17841.90
541.09	18956.00
541.52	18769.63
541.95	18992.86
542.38	19205.85
542.81	18978.53
543.24	18788.07
543.67	19646.16
544.10	19185.37
544.53	19554.01
544.96	18966.24
545.39	19312.35
545.82	19060.45
546.25	18697.95
546.68	19588.82
547.11	19455.70
547.53	19969.74
547.96	19775.19
548.39	18884.32
548.82	19793.62
549.25	19375.83
549.68	19869.39
550.11	19916.50
550.54	20090.57
550.97	19746.51
551.40	20143.82
551.82	20158.16
552.25	20127.44
552.68	19990.22
553.11	19951.31
553.54	20895.43
553.97	20444.87
554.40	20002.51
554.83	21198.52
555.26	20453.06
555.68	21108.41
556.11	20813.51
556.54	21302.97
556.97	20727.49
557.40	21360.31
557.83	21337.79
558.26	21866.16
558.68	21749.43
559.11	22034.10
559.54	21251.77
559.97	21814.96
560.40	21946.03
560.83	21972.66
561.25	21948.08
561.68	22093.49
562.11	22337.20
562.54	22687.40
562.97	22668.97
563.40	22122.16
563.82	22412.97
564.25	22838.95
564.68	22779.56
565.11	22628.01
565.54	22656.68
565.96	23230.11
566.39	22742.69
566.82	23250.59
567.25	23056.03
567.68	23477.91
568.10	23357.08
568.53	23316.12
568.96	23776.92
569.39	23764.63
569.81	23373.47
570.24	23107.23
570.67	23783.06
571.10	23770.77
571.53	23772.82
571.95	24032.91
572.38	23668.37
572.81	23537.30
573.24	24440.46
573.66	23907.99
574.09	24491.66
574.52	24428.17
574.95	23338.65
575.37	24374.92
575.80	23762.58
576.23	24514.19
576.66	24385.16
577.08	24223.37
577.51	23504.54
577.94	24096.40
578.36	24276.62
578.79	24424.08
579.22	24127.12
579.65	23981.71
580.07	24245.90
580.50	23158.43
580.93	24499.85
581.36	24622.73
581.78	23852.69
582.21	24186.51
582.64	24350.35
583.06	23754.39
583.49	24297.10
583.92	23819.92
584.34	24016.53
584.77	24422.03
585.20	23920.28
585.62	24045.20
586.05	23699.09
586.48	24430.22
586.90	24372.88
587.33	23647.90
587.76	24092.30
588.18	23846.55
588.61	23183.01
589.04	23568.02
589.46	23606.94
589.89	23334.56
590.32	22691.49
590.74	23588.50
591.17	24100.50
591.60	23113.38
592.02	24043.15
592.45	23250.59
592.88	22951.59
593.30	23221.92
593.73	23623.32
594.15	22916.77
594.58	23359.13
595.01	22546.09
595.43	22691.49
595.86	23027.36
596.29	23680.66
596.71	23215.77
597.14	23146.14
597.56	22544.04
597.99	23527.06
598.42	22834.85
598.84	23033.50
599.27	23119.52
599.69	23469.72
600.12	23359.13
600.55	23783.06
600.97	22752.93
601.40	22884.00
601.82	23105.18
602.25	22464.17
602.67	22779.56
603.10	22767.27
603.53	22644.39
603.95	22953.63
604.38	22400.68
604.80	22404.78
605.23	22570.66
605.65	22625.96
606.08	22488.74
606.50	22609.58
606.93	22197.93
607.36	22296.24
607.78	22189.74
608.21	22298.28
608.63	22918.82
609.06	22822.56
609.48	22046.38
609.91	22841.00
610.33	21601.97
610.76	22320.81
611.18	22283.95
611.61	22458.03
612.03	22122.16
612.46	22394.54
612.88	21704.37
613.31	22046.38
613.73	19572.44
614.16	22152.88
614.58	22132.40
615.01	21843.63
615.43	22267.56
615.86	21307.07
616.28	21757.62
616.71	21673.65
617.13	21714.61
617.56	21995.18
617.98	21817.01
618.41	21767.86
618.83	21550.78
619.26	20993.73
619.68	21526.20
620.11	21526.20
620.53	21565.11
620.96	20956.86
621.38	21006.02
621.81	20960.96
622.23	21089.98
622.65	21180.09
623.08	20858.56
623.50	20944.58
623.93	20596.42
624.35	20358.86
624.78	20647.62
625.20	20469.45
625.62	20604.61
626.05	20387.53
626.47	20725.44
626.90	20668.10
627.32	20491.98
627.75	20389.58
628.17	19941.07
628.59	20305.61
629.02	19988.18
629.44	20096.72
629.87	19869.39
630.29	20426.44
630.71	17628.92
631.14	19824.34
631.56	20348.62
631.99	19871.44
632.41	19820.24
632.83	19652.31
633.26	19822.29
633.68	19328.73
634.11	19685.08
634.53	19810.00
634.95	20068.05
635.38	19939.02
635.80	19853.01
636.22	19082.97
636.65	19646.16
637.07	19916.50
637.49	19701.46
637.92	18138.86
638.34	19574.49
638.76	18806.50
639.19	19003.10
639.61	19404.50
640.04	19332.82
640.46	19273.43
640.88	19015.39
641.31	18861.79
641.73	19037.92
642.15	18994.91
642.57	19709.65
643.00	17565.43
643.42	19537.62
643.84	19283.67
644.27	18923.23
644.69	18429.67
645.11	18890.46
645.54	18568.93
645.96	18718.43
646.38	18886.37
646.81	18941.66
647.23	18863.84
647.65	18939.61
648.07	18652.90
648.50	18718.43
648.92	18339.56
649.34	17905.39
649.77	18126.57
650.19	18941.66
650.61	18712.29
651.03	18499.30
651.46	18923.23
651.88	18900.70
652.30	18792.16
652.72	18700.00
653.15	18075.37
653.57	18759.39
653.99	18939.61
654.41	18951.90
654.84	17477.37
655.26	18884.32
655.68	19308.25
656.10	19115.74
656.53	18996.96
656.95	18620.13
657.37	18824.93
657.79	19285.72
658.22	18788.07
658.64	18601.70
659.06	18919.14
659.48	18876.13
659.90	19060.45
660.33	19054.30
660.75	18431.72
661.17	17925.87
661.59	19369.69
662.02	18927.33
662.44	18851.55
662.86	19439.32
663.28	18104.04
663.70	18394.86
664.12	18730.72
664.55	19058.40
664.97	18849.50
665.39	18968.29
665.81	18589.41
666.23	19015.39
666.66	18659.04
667.08	19060.45
667.50	19388.12
667.92	19306.20
668.34	18022.12
668.76	19506.90
669.19	19201.76
669.61	19121.88
670.03	18988.77
670.45	19050.21
670.87	18788.07
671.29	18857.70
671.71	18890.46
672.14	19048.16
672.56	18638.56
672.98	19107.55
673.40	18931.42
673.82	18810.59
674.24	18910.94
674.66	19363.54
675.08	18734.82
675.51	18468.58
675.93	18743.01
676.35	18718.43
676.77	18657.00
677.19	18431.72
677.61	18767.59
678.03	18646.76
678.45	18751.20
678.87	18437.86
679.29	18478.82
679.72	18413.29
680.14	18798.31
680.56	18056.94
680.98	18278.12
681.40	18198.25
681.82	18194.15
682.24	17657.59
682.66	18102.00
683.08	18206.44
683.50	17895.15
683.92	18108.14
684.34	17942.25
684.76	17929.97
685.18	17291.00
685.61	18226.92
686.03	17690.35
686.45	17780.46
686.87	17731.31
687.29	17987.31
687.71	18149.10
688.13	17886.96
688.55	17673.97
688.97	17346.30
689.39	17940.21
689.81	17700.59
690.23	17579.76
690.65	17436.41
691.07	17114.87
691.49	17727.22
691.91	17118.97
692.33	17026.81
692.75	17356.54
693.17	16905.98
693.59	17219.32
694.01	16271.11
694.43	17041.15
694.85	17006.33
695.27	16789.25
695.69	17225.47
696.11	17350.39
696.53	17084.16
696.95	15558.42
697.37	16981.76
697.79	15931.15
698.21	16258.82
698.63	16631.55
699.05	16602.88
699.47	16860.93
699.89	15900.43
700.31	16574.21
700.73	16733.95
701.15	16377.61
701.57	16398.09
701.98	16621.31
702.40	16342.79
702.82	15984.40
703.24	16250.63
703.66	15746.83
704.08	16291.59
704.50	16137.99
704.92	15877.90
705.34	15623.95
705.76	15992.59
706.18	14984.99
706.60	15865.61
707.02	15333.14
707.44	15994.64
707.85	15597.33
708.27	16346.89
708.69	15767.31
709.11	16289.54
709.53	15566.61
709.95	15417.11
710.37	15079.19
710.79	14851.87
711.21	14823.20
711.63	14987.04
712.04	14212.90
712.46	14429.99
712.88	14098.22
713.30	13086.52
713.72	13735.73
714.14	14163.75
714.56	14102.31
714.98	14159.66
715.39	13559.60
715.81	13784.88
716.23	14272.29
716.65	13692.72
717.07	13612.85
717.49	13971.24
717.91	13324.08
718.32	13395.76
718.74	13190.97
719.16	12924.73
719.58	12767.04
720.00	12949.31
720.42	12818.24
720.83	12805.95
721.25	12508.99
721.67	12111.69
722.09	12275.52
722.51	12166.98
722.93	11933.51
723.34	11992.90
723.76	11644.75
724.18	11671.37
724.60	11474.77
725.02	11536.21
725.43	10938.20
725.85	11538.26
726.27	11407.19
726.69	11112.28
727.11	10506.08
727.52	11208.53
727.94	10973.02
728.36	10846.04
728.78	10690.40
729.19	10461.02
729.61	10448.74
730.03	10706.78
730.45	10413.92
730.87	10131.30
731.28	10159.97
731.70	10198.88
732.12	9885.55
732.54	9881.45
732.95	9891.69
733.37	9686.89
733.79	9244.53
734.21	9109.36
734.62	9203.57
735.04	9248.63
735.46	9021.30
735.87	8888.18
736.29	9002.87
736.71	8974.20
737.13	8759.16
737.54	9119.60
737.96	8886.14
738.38	8374.14
738.80	8535.93
739.21	8372.10
739.63	8191.87
740.05	8423.30
740.46	8427.39
740.88	7673.74
741.30	7557.00
741.71	7860.10
742.13	7700.36
742.55	7643.02
742.97	7659.40
743.38	7518.09
743.80	7393.17
744.22	7557.00
744.63	7126.93
745.05	6653.85
745.47	6922.13
745.88	7098.26
746.30	6662.04
746.72	6588.32
747.13	6510.49
747.55	6299.55
747.97	6244.26
748.38	6180.77
748.80	6238.11
749.22	6074.28
749.63	5959.59
750.05	5986.21
750.46	5849.00
750.88	5955.49
751.30	5597.10
751.71	5267.38
752.13	5724.07
752.55	5142.45
752.96	5300.14
753.38	5230.51
753.79	5230.51
754.21	4982.71
754.63	4892.60
755.04	4966.32
755.46	4984.76
755.88	4829.11
756.29	4796.34
756.71	4702.14
757.12	4401.08
757.54	4509.63
757.96	4173.76
758.37	4419.52
758.79	4433.85
759.20	4151.23
759.62	4089.79
760.03	4270.01
760.45	4014.02
760.87	4005.83
761.28	3960.77
761.70	3643.34
762.11	3659.72
762.53	3774.41
762.94	3657.67
763.36	3491.79
763.78	3551.18
764.19	3610.57
764.61	3518.41
765.02	3495.88
765.44	3411.92
765.85	3305.42
766.27	3420.11
766.68	3407.82
767.10	3209.17
767.51	3043.28
767.93	3147.73
768.34	3348.43
768.76	3213.26
769.18	3018.71
769.59	2910.16
770.01	3182.54
770.42	3170.26
770.84	2920.40
771.25	2942.93
771.67	2844.63
772.08	2832.34
772.50	2916.31
772.91	2801.62
773.33	2838.48
773.74	2824.15
774.16	2629.59
774.57	2658.26
774.99	2471.90
775.40	2650.07
775.81	3440.59
776.23	2349.02
776.64	2629.59
777.06	2512.86
777.47	2387.93
777.89	2351.07
778.30	2570.20
778.72	2533.34
779.13	2185.18
779.55	2226.14
779.96	2437.08
780.38	2185.18
780.79	2201.57
781.20	2113.50
781.62	2187.23
782.03	1998.82
782.45	2283.49
782.86	2373.60
783.28	2109.41
783.69	2205.66
784.10	2066.40
784.52	1853.41
784.93	1910.75
785.35	2084.83
785.76	2174.94
786.18	2093.02
786.59	2050.02
787.00	2105.31
787.42	1976.29
787.83	1697.77
788.25	1986.53
788.66	1939.43
789.07	2070.50
789.49	1863.65
789.90	1925.09
790.32	1953.76
790.73	1703.91
791.14	1857.51
791.56	1912.80
791.97	1746.92
792.38	1695.72
792.80	1744.87
793.21	1814.50
793.62	1759.21
794.04	1593.32
794.45	1507.31
794.87	1597.42
795.28	1587.18
795.69	1740.77
796.11	1667.05
796.52	1511.40
796.93	1427.43
797.35	1353.71
797.76	1325.04
798.17	1503.21
798.59	1302.51
799.00	1454.06
799.41	1236.97
799.83	1406.95
800.24	1294.32
800.65	1155.05
801.07	1224.69
801.48	1103.86
801.89	2271.20
802.31	1036.27
802.72	1200.11
803.13	901.11
803.54	743.41
803.96	880.63
804.37	843.76
804.78	899.06
805.20	813.04
805.61	897.01
806.02	841.72
806.43	509.94
806.85	774.13
807.26	870.39
807.67	626.68
808.09	294.91
808.50	505.85
808.91	516.09
809.32	761.84
809.74	479.22
810.15	407.55
810.56	370.68
810.97	407.55
811.39	309.24
811.80	616.44
812.21	413.69
812.62	-239.61
813.04	339.96
813.45	411.64
813.86	268.28
814.27	460.79
814.68	276.48
815.10	401.40
815.51	339.96
815.92	430.07
816.33	348.15
816.75	415.74
817.16	511.99
817.57	450.55
817.98	686.07
818.39	485.37
818.81	344.06
819.22	178.17
819.63	268.28
820.04	-159.74
820.45	356.35
820.87	393.21
821.28	266.24
821.69	372.73
822.10	315.39
822.51	-10.24
822.92	245.76
823.34	122.88
823.75	288.76
824.16	-2693.08
824.57	192.51
824.98	477.18
825.39	319.48
825.81	364.54
826.22	256.00
826.63	409.59
827.04	245.76
827.45	294.91
827.86	425.98
828.28	354.30
828.69	399.35
829.10	495.61
829.51	399.35
829.92	413.69
830.33	219.13
830.74	372.73
831.15	178.17
831.57	290.81
831.98	315.39
832.39	249.85
832.80	145.41
833.21	403.45
833.62	286.72
834.03	288.76
834.44	468.98
834.85	266.24
835.26	286.72
835.68	346.11
836.09	329.72
836.50	339.96
836.91	190.46
837.32	157.69
837.73	313.34
838.14	210.94
838.55	-24.58
838.96	112.64
839.37	464.89
839.78	114.69
840.19	30.72
840.60	73.73
841.02	108.54
841.43	264.19
841.84	151.55
842.25	104.45
842.66	122.88
843.07	210.94
843.48	225.28
843.89	-20.48
844.30	149.50
844.71	0.00
845.12	88.06
845.53	294.91
845.94	-112.64
846.35	292.86
846.76	36.86
847.17	294.91
847.58	153.60
847.99	77.82
848.40	161.79
848.81	235.52
849.22	169.98
849.63	188.41
850.04	157.69
850.45	131.07
850.86	137.21
851.27	202.75
851.68	149.50
852.09	36.86
852.50	-63.49
852.91	67.58
853.32	282.62
853.73	155.65
854.14	-12.29
854.55	323.58
854.96	112.64
855.37	165.89
855.78	126.97
856.19	79.87
856.60	294.91
857.01	-43.01
857.42	296.96
857.83	22.53
858.24	227.32
858.64	90.11
859.05	-4.10
859.46	139.26
859.87	73.73
860.28	258.04
860.69	141.31
861.10	131.07
861.51	129.02
861.92	204.80
862.33	247.80
862.74	206.84
863.15	108.54
863.56	352.25
863.96	327.67
864.37	223.23
864.78	210.94
865.19	262.14
865.60	2.05
866.01	276.48
866.42	243.71
866.83	215.04
867.24	516.09
867.65	376.83
868.05	276.48
868.46	206.84
868.87	292.86
869.28	348.15
869.69	299.00
870.10	1021.94
870.51	296.96
870.92	337.91
871.32	305.15
871.73	313.34
872.14	325.63
872.55	419.83
872.96	356.35
873.37	495.61
873.77	497.66
874.18	266.24
874.59	331.77
875.00	444.41
875.41	511.99
875.82	272.38
876.22	391.16
876.63	272.38
877.04	413.69
877.45	280.57
877.86	184.32
878.27	-28.67
878.67	466.94
879.08	362.49
879.49	208.89
879.90	380.92
880.31	524.28
880.71	399.35
881.12	354.30
881.53	370.68
881.94	352.25
882.35	342.01
882.75	403.45
883.16	163.84
883.57	395.26
883.98	284.67
884.38	362.49
884.79	335.87
885.20	243.71
885.61	172.03
886.02	0.00
886.42	552.95
886.83	32.77
887.24	270.33
887.65	319.48
888.05	137.21
888.46	389.11
888.87	223.23
889.28	260.09
889.68	161.79
890.09	202.75
890.50	180.22
890.91	114.69
891.31	356.35
891.72	172.03
892.13	346.11
892.53	163.84
892.94	206.84
893.35	22.53
893.76	-45.06
894.16	368.63
894.57	106.49
894.98	124.93
895.38	-51.20
895.79	-24.58
896.20	149.50
896.61	292.86
897.01	397.31
897.42	-28.67
897.83	161.79
898.23	131.07
898.64	71.68
899.05	129.02
899.45	174.08
899.86	55.30
900.27	172.03
900.67	210.94
901.08	225.28
901.49	63.49
901.89	8.19
902.30	79.87
902.71	342.01
903.11	137.21
903.52	309.24
903.93	-8.19
904.33	86.01
904.74	163.84
905.15	180.22
905.55	225.28
905.96	96.25
906.36	69.63
906.77	36.86
907.18	309.24
907.58	4.10
907.99	-8.19
908.40	40.96
908.80	157.69
909.21	192.51
909.61	116.73
910.02	141.31
910.43	-28.67
910.83	79.87
911.24	116.73
911.64	32.77
912.05	133.12
912.46	180.22
912.86	108.54
913.27	-22.53
913.67	311.29
914.08	327.67
914.48	215.04
914.89	202.75
915.30	47.10
915.70	118.78
916.11	-26.62
916.51	-10.24
916.92	145.41
917.32	131.07
917.73	198.65
918.14	131.07
918.54	167.93
918.95	180.22
919.35	210.94
919.76	28.67
920.16	272.38
920.57	10.24
920.97	53.25
921.38	188.41
921.78	49.15
922.19	172.03
922.59	114.69
923.00	204.80
923.41	22.53
923.81	239.61
924.22	-83.97
924.62	61.44
925.03	16.38
925.43	227.32
925.84	90.11
926.24	169.98
926.65	126.97
927.05	139.26
927.46	-18.43
927.86	94.21
928.27	190.46
928.67	-73.73
929.08	120.83
929.48	327.68
929.88	79.87
930.29	155.65
930.69	-38.91
931.10	28.67
931.50	-12.29
931.91	36.86
932.31	71.68
932.72	-43.01
933.12	59.39
933.53	239.61
933.93	174.08
934.34	38.91
934.74	129.02
935.14	184.32
935.55	196.60
935.95	176.13
936.36	100.35
936.76	45.06
937.17	-28.67
937.57	202.75
937.97	165.89
938.38	135.17
938.78	63.49
939.19	161.79
939.59	57.34
940.00	102.40
940.40	174.08
940.80	141.31
941.21	145.41
941.61	53.25
942.02	-12.29
942.42	124.93
942.82	325.63
943.23	286.72
943.63	331.77
944.04	94.21
944.44	139.26
944.84	311.29
945.25	282.62
945.65	102.40
946.05	186.37
946.46	30.72
946.86	159.74
947.26	-1169.39
947.67	-61.44
948.07	165.89
948.48	165.89
948.88	157.69
949.28	-61.44
949.69	10.24
950.09	137.21
950.49	231.42
950.90	161.79
951.30	-12.29
951.70	196.60
952.11	49.15
952.51	-16.38
952.91	36.86
953.32	102.40
953.72	180.22
954.12	112.64
954.53	40.96
954.93	96.25
955.33	118.78
955.74	38.91
956.14	28.67
956.54	61.44
956.94	8.19
957.35	167.93
957.75	133.12
958.15	122.88
958.56	-178.17
958.96	98.30
959.36	129.02
959.76	253.95
960.17	174.08
960.57	-10.24
960.97	282.62
961.38	67.58
961.78	16.38
962.18	491.51
962.58	208.89
962.99	71.68
963.39	184.32
963.79	176.13
964.19	288.76
964.60	108.54
965.00	126.97
965.40	-22.53
965.80	114.69
966.21	352.25
966.61	294.91
967.01	266.24
967.41	186.37
967.81	83.97
968.22	133.12
968.62	225.28
969.02	151.55
969.42	284.67
969.83	184.32
970.23	65.53
970.63	86.01
971.03	6.14
971.43	282.62
971.84	110.59
972.24	86.01
972.64	182.27
973.04	186.37
973.44	270.33
973.85	108.54
974.25	260.09
974.65	325.63
975.05	157.69
975.45	337.91
975.85	286.72
976.26	321.53
976.66	161.79
977.06	315.39
977.46	28.67
977.86	311.29
978.26	419.83
978.67	180.22
979.07	217.08
979.47	67.58
979.87	155.65
980.27	184.32
980.67	65.53
981.07	145.41
981.48	153.60
981.88	382.97
982.28	391.16
982.68	24.58
983.08	321.53
983.48	77.82
983.88	206.84
984.29	286.72
984.69	296.96
985.09	215.04
985.49	305.15
985.89	47.10
986.29	278.52
986.69	268.28
987.09	96.25
987.49	284.67
987.89	389.11
988.30	-65.53
988.70	503.80
989.10	354.30
989.50	157.69
989.90	368.63
990.30	149.50
990.70	241.66
991.10	212.99
991.50	167.93
991.90	278.52
992.30	122.88
992.70	229.37
993.10	-32.77
993.50	53.25
993.91	387.07
994.31	196.61
994.71	307.20
995.11	186.37
995.51	288.76
995.91	327.67
996.31	362.49
996.71	315.39
997.11	28.67
997.51	309.24
997.91	376.83
998.31	301.05
998.71	221.18
999.11	196.60
999.51	77.82
999.91	83.97
1000.31	137.21
1000.71	315.39
1001.11	184.32
1001.51	227.32
1001.91	346.11
1002.31	296.96
1002.71	358.39
1003.11	333.82
1003.51	186.37
1003.91	51.20
1004.31	192.51
1004.71	112.64
1005.11	231.42
1005.51	198.65
1005.91	186.37
1006.31	167.93
1006.71	280.57
1007.11	311.29
1007.51	315.39
1007.91	225.28
1008.31	176.13
1008.71	200.70
1009.11	243.71
1009.51	331.77
1009.91	522.23
1010.30	401.40
1010.70	354.30
1011.10	370.68
1011.50	262.14
1011.90	278.52
1012.30	192.51
1012.70	387.07
1013.10	219.13
1013.50	235.52
1013.90	47.10
1014.30	292.86
1014.70	215.04
1015.10	116.73
1015.50	368.63
1015.89	548.86
1016.29	143.36
1016.69	278.52
1017.09	425.98
1017.49	389.11
1017.89	270.33
1018.29	360.44
1018.69	184.32
1019.09	112.64
1019.48	124.93
1019.88	178.17
1020.28	69.63
1020.68	212.99
1021.08	69.63
1021.48	186.37
1021.88	389.11
1022.28	249.85
1022.67	149.50
1023.07	372.73
1023.47	309.24
1023.87	268.28
1024.27	81.92
1024.67	434.17
1025.07	296.96
1025.46	423.93
1025.86	102.40
1026.26	468.98
1026.66	331.77
1027.06	270.33
1027.46	356.35
1027.85	233.47
1028.25	172.03
1028.65	372.73
1029.05	315.39
1029.45	309.24
1029.85	380.92
1030.24	350.20
1030.64	317.44
1031.04	299.00
1031.44	176.13
1031.84	526.33
1032.23	303.10
1032.63	296.96
1033.03	376.83
1033.43	249.85
1033.83	237.56
1034.22	317.44
1034.62	604.15
1035.02	262.14
1035.42	278.52
1035.81	278.52
1036.21	247.80
1036.61	362.49
1037.01	411.64
1037.41	366.59
1037.80	325.63
1038.20	710.65
1038.60	116.73
1039.00	163.84
1039.39	561.14
1039.79	448.51
1040.19	282.62
1040.59	333.82
1040.98	446.46
1041.38	389.11
1041.78	450.55
1042.17	329.72
1042.57	376.83
1042.97	509.94
1043.37	409.59
1043.76	331.77
1044.16	249.85
1044.56	313.34
1044.96	483.32
1045.35	284.67
1045.75	305.15
1046.15	659.45
1046.54	509.94
1046.94	643.06
1047.34	182.27
1047.73	325.63
1048.13	311.29
1048.53	481.27
1048.93	294.91
1049.32	475.13
1049.72	241.66
1050.12	442.36
1050.51	358.39
1050.91	468.98
1051.31	550.90
1051.70	147.45
1052.10	333.82
1052.50	389.11
1052.89	540.66
1053.29	364.54
1053.69	288.76
1054.08	395.26
1054.48	352.25
1054.87	241.66
1055.27	245.76
1055.67	497.66
1056.06	256.00
1056.46	368.63
1056.86	448.51
1057.25	710.65
1057.65	366.59
1058.05	610.29
1058.44	356.35
1058.84	514.04
1059.23	454.65
1059.63	524.28
1060.03	268.28
1060.42	440.31
1060.82	337.91
1061.21	344.06
1061.61	542.71
1062.01	522.23
1062.40	342.01
1062.80	544.76
1063.19	454.65
1063.59	301.05
1063.99	501.75
1064.38	296.96
1064.78	559.10
1065.17	362.49
1065.57	593.91
1065.97	342.01
1066.36	487.42
1066.76	462.84
1067.15	526.33
1067.55	391.16
1067.94	438.27
1068.34	618.49
1068.73	333.82
1069.13	307.20
1069.53	249.85
1069.92	622.58
1070.32	636.92
1070.71	301.05
1071.11	483.32
1071.50	299.00
1071.90	622.58
1072.29	626.68
1072.69	346.11
1073.08	514.04
1073.48	317.44
1073.87	313.34
1074.27	471.03
1074.66	540.66
1075.06	546.81
1075.45	329.72
1075.85	468.98
1076.24	501.75
1076.64	450.55
1077.03	319.48
1077.43	733.17
1077.82	567.29
1078.22	573.43
1078.61	481.27
1079.01	430.07
1079.40	598.01
1079.80	358.39
1080.19	434.17
1080.59	499.70
1080.98	610.29
1081.38	382.97
1081.77	583.67
1082.17	366.59
1082.56	610.29
1082.96	450.55
1083.35	843.76
1083.75	280.57
1084.14	587.77
1084.53	458.75
1084.93	528.38
1085.32	598.01
1085.72	563.19
1086.11	653.30
1086.51	825.33
1086.90	299.00
1087.30	806.90
1087.69	618.49
1088.08	391.16
1088.48	528.38
1088.87	518.14
1089.27	530.42
1089.66	571.38
1090.05	485.37
1090.45	286.72
1090.84	503.80
1091.24	620.53
1091.63	858.10
1092.02	647.16
1092.42	452.60
1092.81	342.01
1093.21	600.05
1093.60	399.35
1093.99	501.75
1094.39	544.76
1094.78	765.94
1095.18	722.93
1095.57	733.17
1095.96	350.20
1096.36	690.17
1096.75	671.73
1097.14	587.77
1097.54	548.86
1097.93	434.17
1098.32	614.39
1098.72	438.27
1099.11	454.65
1099.50	456.70
1099.90	395.26
1100.29	81.92
1100.69	550.90
1101.08	632.82
1101.47	585.72
1101.87	610.29
1102.26	387.07
1102.65	614.39
1103.04	485.37
1103.44	608.25
1103.83	454.65
1104.22	679.93
1104.62	571.38
1105.01	579.58
1105.40	440.31
1105.80	657.40
1106.19	370.68
1106.58	612.34
1106.98	389.11
1107.37	428.03
1107.76	657.40
1108.15	571.38
1108.55	659.45
1108.94	679.93
1109.33	466.94
1109.73	497.66
1110.12	-4.10
1110.51	626.68
1110.90	507.90
1111.30	399.35
1111.69	567.29
1112.08	778.23
1112.47	851.95
1112.87	448.51
1113.26	409.59
1113.65	679.93
1114.04	479.22
1114.44	700.41
1114.83	536.57
1115.22	780.28
1115.61	548.86
1116.01	731.12
1116.40	761.84
1116.79	520.18
1117.18	497.66
1117.58	870.39
1117.97	487.42
1118.36	436.22
1118.75	661.49
1119.14	520.18
1119.54	557.05
1119.93	550.90
1120.32	514.04
1120.71	718.84
1121.10	595.96
1121.50	772.08
1121.89	741.36
1122.28	686.07
1122.67	552.95
1123.06	737.27
1123.46	780.28
1123.85	456.70
1124.24	583.67
1124.63	858.10
1125.02	669.69
1125.41	548.86
1125.81	364.54
1126.20	557.05
1126.59	587.77
1126.98	606.20
1127.37	681.97
1127.76	653.30
1128.16	729.08
1128.55	557.05
1128.94	688.12
1129.33	860.15
1129.72	636.92
1130.11	872.43
1130.50	548.86
1130.90	618.49
1131.29	567.29
1131.68	677.88
1132.07	720.89
1132.46	960.50
1132.85	653.30
1133.24	753.65
1133.63	778.23
1134.03	870.39
1134.42	716.79
1134.81	727.03
1135.20	821.24
1135.59	813.04
1135.98	780.28
1136.37	692.21
1136.76	931.83
1137.15	735.22
1137.54	1009.65
1137.94	620.53
1138.33	899.06
1138.72	608.25
1139.11	770.04
1139.50	956.40
1139.89	794.61
1140.28	489.46
1140.67	708.60
1141.06	774.13
1141.45	915.44
1141.84	563.19
1142.23	815.09
1142.62	704.50
1143.01	962.55
1143.40	657.40
1143.80	684.02
1144.19	647.16
1144.58	800.76
1144.97	960.50
1145.36	835.57
1145.75	722.93
1146.14	587.77
1146.53	841.72
1146.92	643.06
1147.31	894.96
1147.70	821.24
1148.09	880.63
1148.48	813.04
1148.87	866.29
1149.26	827.38
1149.65	874.48
1150.04	901.11
1150.43	786.42
1150.82	659.45
1151.21	929.78
1151.60	808.95
1151.99	663.54
1152.38	1013.74
1152.77	755.70
1153.16	985.07
1153.55	-3139.54
1153.94	782.32
1154.33	546.81
1154.72	874.48
1155.11	741.36
1155.50	698.36
1155.89	972.79
1156.28	1097.71
1156.67	667.64
1157.06	954.35
1157.44	903.15
1157.83	862.19
1158.22	825.33
1158.61	868.34
1159.00	882.67
1159.39	735.22
1159.78	741.36
1160.17	747.51
1160.56	673.78
1160.95	894.96
1161.34	874.48
1161.73	985.07
1162.12	911.35
1162.51	909.30
1162.90	899.06
1163.28	1073.14
1163.67	849.91
1164.06	745.46
1164.45	696.31
1164.84	927.73
1165.23	702.45
1165.62	1060.85
1166.01	913.39
1166.40	999.41
1166.79	796.66
1167.17	808.95
1167.56	778.23
1167.95	716.79
1168.34	872.43
1168.73	886.77
1169.12	1023.98
1169.51	997.36
1169.90	819.19
1170.28	886.77
1170.67	919.54
1171.06	1095.66
1171.45	1019.89
1171.84	931.83
1172.23	796.66
1172.62	987.12
1173.00	659.45
1173.39	722.93
1173.78	759.80
1174.17	1075.18
1174.56	1036.27
1174.95	776.18
1175.33	1232.88
1175.72	911.35
1176.11	716.79
1176.50	866.29
1176.89	952.31
1177.28	929.78
1177.66	917.49
1178.05	780.28
1178.44	915.44
1178.83	858.10
1179.22	866.29
1179.60	786.42
1179.99	829.43
1180.38	874.48
1180.77	901.11
1181.16	886.77
1181.54	858.10
1181.93	727.03
1182.32	751.60
1182.71	993.26
1183.09	884.72
1183.48	825.33
1183.87	1011.70
1184.26	964.59
1184.65	729.08
1185.03	913.39
1185.42	864.24
1185.81	921.59
1186.20	573.43
1186.58	884.72
1186.97	808.95
1187.36	989.17
1187.75	802.80
1188.13	882.67
1188.52	968.69
1188.91	962.55
1189.30	815.09
1189.68	770.04
1190.07	778.23
1190.46	753.65
1190.84	854.00
1191.23	749.56
1191.62	847.86
1192.01	1017.84
1192.39	790.52
1192.78	851.95
1193.17	985.07
1193.55	802.80
1193.94	860.15
1194.33	749.56
1194.72	1003.50
1195.10	1091.57
1195.49	2109.41
1195.88	667.64
1196.26	811.00
1196.65	1054.70
1197.04	849.91
1197.42	933.87
1197.81	1021.94
1198.20	1073.14
1198.58	606.20
1198.97	954.35
1199.36	1015.79
1199.74	983.03
1200.13	901.11
1200.52	1128.43
1200.90	970.74
1201.29	874.48
1201.68	931.83
1202.06	798.71
1202.45	466.94
1202.84	745.46
1203.22	782.32
1203.61	1075.18
1203.99	718.84
1204.38	968.69
1204.77	1066.99
1205.15	954.35
1205.54	1112.05
1205.93	958.45
1206.31	1101.81
1206.70	890.87
1207.08	927.73
1207.47	1050.61
1207.86	956.40
1208.24	862.19
1208.63	954.35
1209.01	899.06
1209.40	927.73
1209.79	839.67
1210.17	1144.81
1210.56	1015.79
1210.94	962.55
1211.33	1021.94
1211.72	991.22
1212.10	921.59
1212.49	983.02
1212.87	1099.76
1213.26	1234.93
1213.64	1093.62
1214.03	894.96
1214.42	851.95
1214.80	874.48
1215.19	946.16
1215.57	915.44
1215.96	1155.05
1216.34	1038.32
1216.73	1253.36
1217.11	909.30
1217.50	727.03
1217.89	962.55
1218.27	845.81
1218.66	1228.78
1219.04	968.69
1219.43	1286.12
1219.81	958.45
1220.20	1030.13
1220.58	1073.14
1220.97	991.22
1221.35	931.83
1221.74	1148.91
1222.12	950.26
1222.51	1023.98
1222.89	919.54
1223.28	1112.05
1223.66	897.01
1224.05	1003.50
1224.43	1081.33
1224.82	1230.83
1225.20	776.18
1225.59	1021.94
1225.97	1009.65
1226.36	1013.74
1226.74	962.55
1227.13	888.82
1227.51	1161.20
1227.90	921.59
1228.28	733.17
1228.66	927.73
1229.05	960.50
1229.43	1081.33
1229.82	806.90
1230.20	1257.45
1230.59	1091.57
1230.97	874.48
1231.36	1107.95
1231.74	985.07
1232.13	811.00
1232.51	1153.01
1232.89	1146.86
1233.28	864.24
1233.66	903.15
1234.05	1015.79
1234.43	849.91
1234.82	950.26
1235.20	1163.25
1235.58	1005.55
1235.97	708.60
1236.35	1081.33
1236.74	1044.46
1237.12	1097.71
1237.50	952.31
1237.89	851.95
1238.27	894.96
1238.66	1030.13
1239.04	960.50
1239.42	813.04
1239.81	1150.96
1240.19	860.15
1240.58	1112.05
1240.96	1140.72
1241.34	995.31
1241.73	989.17
1242.11	1026.03
1242.49	1044.46
1242.88	862.19
1243.26	917.49
1243.64	1040.37
1244.03	978.93
1244.41	899.06
1244.80	1015.79
1245.18	860.15
1245.56	876.53
1245.95	983.02
1246.33	1124.33
1246.71	1112.05
1247.10	1144.81
1247.48	1095.66
1247.86	976.88
1248.25	608.25
1248.63	911.35
1249.01	991.22
1249.40	966.64
1249.78	1032.18
1250.16	905.20
1250.55	1099.76
1250.93	966.64
1251.31	1034.22
1251.69	798.71
1252.08	794.61
1252.46	491.51
1252.84	1011.70
1253.23	1007.60
1253.61	866.29
1253.99	813.04
1254.37	1036.27
1254.76	1034.22
1255.14	1110.00
1255.52	952.31
1255.91	776.18
1256.29	987.12
1256.67	962.55
1257.05	1134.57
1257.44	909.30
1257.82	1128.43
1258.20	958.45
1258.58	782.32
1258.97	962.55
1259.35	1173.49
1259.73	1378.28
1260.11	1171.44
1260.50	800.76
1260.88	917.49
1261.26	970.74
1261.64	950.26
1262.03	1232.88
1262.41	995.31
1262.79	903.15
1263.17	1056.75
1263.56	1196.01
1263.94	765.94
1264.32	927.73
1264.70	894.96
1265.08	903.15
1265.47	1048.56
1265.85	1001.46
1266.23	899.06
1266.61	1087.47
1266.99	1064.94
1267.38	950.26
1267.76	940.02
1268.14	1011.70
1268.52	823.28
1268.90	884.72
1269.29	847.86
1269.67	897.01
1270.05	892.91
1270.43	802.80
1270.81	942.07
1271.19	1171.44
1271.58	671.73
1271.96	917.49
1272.34	1120.24
1272.72	1048.56
1273.10	815.09
1273.48	1001.46
1273.86	1017.84
1274.25	1026.03
1274.63	911.35
1275.01	1011.70
1275.39	847.86
1275.77	995.31
1276.15	763.89
1276.53	860.15
1276.92	952.31
1277.30	720.89
1277.68	1187.82
1278.06	657.40
1278.44	866.29
1278.82	1028.08
1279.20	917.49
1279.58	1052.66
1279.97	1032.18
1280.35	1064.94
1280.73	987.12
1281.11	946.16
1281.49	921.59
1281.87	923.63
1282.25	909.30
1282.63	792.56
1283.01	897.01
1283.39	851.95
1283.77	970.74
1284.16	1196.01
1284.54	940.02
1284.92	1054.70
1285.30	886.77
1285.68	870.39
1286.06	901.11
1286.44	1050.61
1286.82	1023.98
1287.20	970.74
1287.58	851.95
1287.96	937.97
1288.34	952.31
1288.72	909.30
1289.10	1001.46
1289.48	946.16
1289.86	714.74
1290.24	1161.20
1290.62	899.06
1291.00	845.81
1291.38	1021.94
1291.77	839.67
1292.15	767.99
1292.53	968.69
1292.91	1105.90
1293.29	1058.80
1293.67	856.05
1294.05	708.60
1294.43	868.34
1294.81	899.06
1295.19	1073.14
1295.57	974.83
1295.95	1003.50
1296.33	1138.67
1296.71	874.48
1297.09	1114.10
1297.47	919.54
1297.85	946.16
1298.23	851.95
1298.60	1007.60
1298.98	1026.03
1299.36	866.29
1299.74	776.18
1300.12	1110.00
1300.50	2500.57
1300.88	1101.81
1301.26	978.93
1301.64	880.63
1302.02	987.12
1302.40	845.81
1302.78	724.98
1303.16	905.20
1303.54	638.97
1303.92	653.30
1304.30	937.97
1304.68	825.33
1305.06	1124.33
1305.44	1101.81
1305.82	1028.08
1306.19	763.89
1306.57	1054.70
1306.95	1001.46
1307.33	1095.66
1307.71	1187.82
1308.09	1185.77
1308.47	614.39
1308.85	1169.39
1309.23	968.69
1309.61	1050.61
1309.99	815.09
1310.36	1181.68
1310.74	1030.13
1311.12	1177.58
1311.50	950.26
1311.88	806.90
1312.26	905.20
1312.64	946.16
1313.02	911.35
1313.39	1091.57
1313.77	862.19
1314.15	1081.33
1314.53	1114.09
1314.91	958.45
1315.29	1056.75
1315.67	989.17
1316.05	1009.65
1316.42	935.92
1316.80	931.83
1317.18	962.55
1317.56	856.05
1317.94	784.37
1318.32	1017.84
1318.69	915.44
1319.07	858.10
1319.45	1017.84
1319.83	757.75
1320.21	931.83
1320.59	983.02
1320.96	1034.22
1321.34	1146.86
1321.72	954.35
1322.10	997.36
1322.48	821.24
1322.85	1034.22
1323.23	976.88
1323.61	927.73
1323.99	995.31
1324.37	835.57
1324.74	909.30
1325.12	874.48
1325.50	966.64
1325.88	1122.29
1326.26	923.63
1326.63	1112.05
1327.01	929.78
1327.39	1052.66
1327.77	987.12
1328.14	964.59
1328.52	1132.53
1328.90	1161.20
1329.28	952.31
1329.66	757.75
1330.03	935.92
1330.41	970.74
1330.79	888.82
1331.17	837.62
1331.54	1071.09
1331.92	1136.62
1332.30	845.81
1332.67	987.12
1333.05	935.92
1333.43	956.40
1333.81	993.26
1334.18	970.74
1334.56	1017.84
1334.94	1122.29
1335.32	1071.09
1335.69	786.42
1336.07	880.63
1336.45	1042.42
1336.82	929.78
1337.20	985.07
1337.58	884.72
1337.96	995.31
1338.33	1251.31
1338.71	1019.89
1339.09	987.12
1339.46	944.11
1339.84	970.74
1340.22	888.82
1340.59	1232.88
1340.97	976.88
1341.35	831.48
1341.72	1030.13
1342.10	956.40
1342.48	968.69
1342.85	921.59
1343.23	792.56
1343.61	897.01
1343.98	991.22
1344.36	761.84
1344.74	942.07
1345.11	856.05
1345.49	1130.48
1345.87	985.07
1346.24	1071.09
1346.62	999.41
1347.00	917.49
1347.37	983.02
1347.75	1153.01
1348.12	880.63
1348.50	882.67
1348.88	839.67
1349.25	937.97
1349.63	882.67
1350.00	1255.40
1350.38	929.78
1350.76	1075.18
1351.13	800.76
1351.51	905.20
1351.89	1236.97
1352.26	1052.66
1352.64	970.74
1353.01	1175.53
1353.39	1066.99
1353.76	1046.51
1354.14	1081.33
1354.52	917.49
1354.89	811.00
1355.27	1103.86
1355.64	829.43
1356.02	724.98
1356.40	1019.89
1356.77	935.92
1357.15	952.31
1357.52	1273.84
1357.90	1265.64
1358.27	1114.09
1358.65	964.59
1359.02	1048.56
1359.40	1134.57
1359.78	956.40
1360.15	1083.38
1360.53	944.11
1360.90	1030.13
1361.28	991.22
1361.65	1079.28
1362.03	1007.60
1362.40	1249.26
1362.78	1136.62
1363.15	1075.18
1363.53	1198.06
1363.90	833.52
1364.28	978.93
1364.65	1193.97
1365.03	1957.86
1365.40	1091.57
1365.78	1118.19
1366.15	1036.27
1366.53	964.59
1366.90	1017.84
1367.28	1044.46
1367.65	991.22
1368.03	1048.56
1368.40	890.87
1368.78	897.01
1369.15	862.19
1369.53	942.07
1369.90	1032.18
1370.28	972.79
1370.65	835.57
1371.03	966.64
1371.40	1050.61
1371.78	1021.94
1372.15	1026.03
1372.53	1087.47
1372.90	880.63
1373.27	1054.70
1373.65	854.00
1374.02	1058.80
1374.40	1048.56
1374.77	1007.60
1375.15	911.35
1375.52	1013.74
1375.89	950.26
1376.27	1105.90
1376.64	929.78
1377.02	1114.09
1377.39	952.31
1377.77	905.20
1378.14	1095.66
1378.51	1206.25
1378.89	1042.42
1379.26	847.86
1379.64	1071.09
1380.01	1081.33
1380.38	1042.42
1380.76	948.21
1381.13	956.40
1381.51	835.57
1381.88	1155.05
1382.25	950.26
1382.63	901.11
1383.00	1112.05
1383.38	1075.18
1383.75	858.10
1384.12	1021.94
1384.50	1052.66
1384.87	944.11
1385.24	1140.72
1385.62	1030.13
1385.99	929.78
1386.36	1081.33
1386.74	1159.15
1387.11	1056.75
1387.49	1017.84
1387.86	989.17
1388.23	1066.99
1388.61	952.31
1388.98	1091.57
1389.35	899.06
1389.73	864.24
1390.10	886.77
1390.47	1021.94
1390.85	813.04
1391.22	864.24
1391.59	1079.28
1391.96	1066.99
1392.34	878.58
1392.71	1099.76
1393.08	849.91
1393.46	927.73
1393.83	1189.87
1394.20	956.40
1394.58	815.09
1394.95	1087.47
1395.32	872.43
1395.70	765.94
1396.07	681.97
1396.44	964.59
1396.81	1062.90
1397.19	892.91
1397.56	980.98
1397.93	1064.94
1398.30	966.64
1398.68	817.14
1399.05	1277.93
1399.42	1105.90
1399.80	907.25
1400.17	829.43
1400.54	774.13
1400.91	980.98
1401.29	884.72
1401.66	970.74
1402.03	940.02
1402.40	956.40
1402.78	1748.97
1403.15	870.39
1403.52	991.22
1403.89	839.67
1404.26	1060.85
1404.64	974.83
1405.01	935.92
1405.38	1003.50
1405.75	991.22
1406.13	751.60
1406.50	1066.99
1406.87	823.28
1407.24	952.31
1407.61	919.54
1407.99	655.35
1408.36	993.26
1408.73	980.98
1409.10	921.59
1409.47	942.07
1409.85	1066.99
1410.22	780.28
1410.59	1071.09
1410.96	1245.17
1411.33	911.35
1411.70	1052.66
1412.08	993.26
1412.45	931.83
1412.82	890.87
1413.19	1046.51
1413.56	888.82
1413.93	983.02
1414.31	1015.79
1414.68	856.05
1415.05	878.58
1415.42	894.96
1415.79	778.23
1416.16	989.17
1416.54	835.57
1416.91	1077.23
1417.28	901.11
1417.65	1101.81
1418.02	765.94
1418.39	772.08
1418.76	948.21
1419.13	737.27
1419.51	790.52
1419.88	679.93
1420.25	1017.84
1420.62	1091.57
1420.99	989.17
1421.36	962.55
1421.73	765.94
1422.10	829.43
1422.47	835.57
1422.85	1019.89
1423.22	1017.84
1423.59	935.92
1423.96	913.39
1424.33	759.80
1424.70	882.67
1425.07	632.82
1425.44	753.65
1425.81	731.12
1426.18	813.04
1426.55	767.99
1426.92	942.07
1427.29	995.31
1427.67	659.45
1428.04	632.82
1428.41	958.45
1428.78	907.25
1429.15	923.63
1429.52	890.87
1429.89	935.92
1430.26	745.46
1430.63	847.86
1431.00	880.63
1431.37	839.67
1431.74	792.56
1432.11	485.37
1432.48	933.87
1432.85	645.11
1433.22	739.32
1433.59	702.45
1433.96	849.91
1434.33	714.74
1434.70	937.97
1435.07	608.25
1435.44	980.98
1435.81	792.56
1436.18	980.98
1436.55	780.28
1436.92	1253.36
1437.29	884.72
1437.66	591.86
1438.03	774.13
1438.40	667.64
1438.77	724.98
1439.14	929.78
1439.51	741.36
1439.88	794.61
1440.25	788.47
1440.62	843.76
1440.99	751.60
1441.36	546.81
1441.73	651.25
1442.10	778.23
1442.47	718.84
1442.84	630.77
1443.21	794.61
1443.58	856.05
1443.95	892.91
1444.32	673.78
1444.68	897.01
1445.05	698.36
1445.42	626.68
1445.79	876.53
1446.16	829.43
1446.53	688.12
1446.90	663.54
1447.27	884.72
1447.64	845.81
1448.01	833.52
1448.38	733.17
1448.75	487.42
1449.12	712.69
1449.48	589.81
1449.85	864.24
1450.22	679.93
1450.59	636.92
1450.96	595.96
1451.33	688.12
1451.70	712.69
1452.07	743.41
1452.44	821.24
1452.80	608.25
1453.17	653.30
1453.54	731.12
1453.91	899.06
1454.28	612.34
1454.65	718.84
1455.02	428.03
1455.39	438.27
1455.75	679.93
1456.12	626.68
1456.49	458.75
1456.86	417.79
1457.23	434.17
1457.60	671.73
1457.96	495.61
1458.33	782.32
1458.70	628.73
1459.07	514.04
1459.44	585.72
1459.81	487.42
1460.17	301.05
1460.54	681.97
1460.91	679.93
1461.28	600.05
1461.65	614.39
1462.02	331.77
1462.38	526.33
1462.75	468.98
1463.12	598.01
1463.49	649.21
1463.86	348.15
1464.22	505.85
1464.59	802.80
1464.96	466.94
1465.33	577.53
1465.70	667.64
1466.06	677.88
1466.43	458.74
1466.80	501.75
1467.17	767.99
1467.53	645.11
1467.90	395.26
1468.27	690.17
1468.64	507.90
1469.01	657.40
1469.37	616.44
1469.74	598.01
1470.11	608.25
1470.48	456.70
1470.84	464.89
1471.21	583.67
1471.58	645.11
1471.95	473.08
1472.31	1210.35
1472.68	501.75
1473.05	624.63
1473.41	473.08
1473.78	475.13
1474.15	387.07
1474.52	675.83
1474.88	362.49
1475.25	567.29
1475.62	616.44
1475.99	501.75
1476.35	479.22
1476.72	585.72
1477.09	585.72
1477.45	532.47
1477.82	550.90
1478.19	505.85
1478.55	514.04
1478.92	796.66
1479.29	499.70
1479.66	489.46
1480.02	598.01
1480.39	493.56
1480.76	405.50
1481.12	303.10
1481.49	290.81
1481.86	487.42
1482.22	403.45
1482.59	538.62
1482.96	565.24
1483.32	548.86
1483.69	526.33
1484.06	630.77
1484.42	454.65
1484.79	278.52
1485.15	409.59
1485.52	505.85
1485.89	522.23
1486.25	661.49
1486.62	460.79
1486.99	511.99
1487.35	421.88
1487.72	616.44
1488.09	419.83
1488.45	366.59
1488.82	331.77
1489.18	497.66
1489.55	307.20
1489.92	518.14
1490.28	485.37
1490.65	286.72
1491.01	448.51
1491.38	528.38
1491.75	421.88
1492.11	362.49
1492.48	395.26
1492.84	600.05
1493.21	587.77
1493.58	438.27
1493.94	434.17
1494.31	403.45
1494.67	499.70
1495.04	253.95
1495.40	569.34
1495.77	626.68
1496.14	544.76
1496.50	321.53
1496.87	460.79
1497.23	487.42
1497.60	544.76
1497.96	475.13
1498.33	442.36
1498.70	428.03
1499.06	409.59
1499.43	505.85
1499.79	-1740.77
1500.16	511.99
1500.52	376.83
1500.89	260.09
1501.25	356.35
1501.62	360.44
1501.98	415.74
1502.35	481.27
1502.71	354.30
1503.08	415.74
1503.44	624.63
1503.81	382.97
1504.17	358.39
1504.54	167.93
1504.90	413.69
1505.27	204.80
1505.63	317.44
1506.00	499.70
1506.36	206.84
1506.73	475.13
1507.09	436.22
1507.46	399.35
1507.82	544.76
1508.19	124.93
1508.55	83.97
1508.92	157.69
1509.28	483.32
1509.65	188.41
1510.01	167.93
1510.38	366.59
1510.74	323.58
1511.11	339.96
1511.47	239.61
1511.83	405.50
1512.20	194.56
1512.56	376.83
1512.93	706.55
1513.29	387.07
1513.66	122.88
1514.02	188.41
1514.39	360.44
1514.75	24.58
1515.11	425.98
1515.48	348.15
1515.84	141.31
1516.21	264.19
1516.57	325.63
1516.94	303.10
1517.30	628.73
1517.66	83.97
1518.03	-28.67
1518.39	534.52
1518.76	442.36
1519.12	247.80
1519.48	352.25
1519.85	399.35
1520.21	305.15
1520.58	251.90
1520.94	329.72
1521.30	165.89
1521.67	139.26
1522.03	139.26
1522.39	215.04
1522.76	407.55
1523.12	233.47
1523.49	249.85
1523.85	135.17
1524.21	417.79
1524.58	71.68
1524.94	358.39
1525.30	-73.73
1525.67	188.41
1526.03	344.06
1526.39	358.39
1526.76	229.37
1527.12	206.84
1527.48	210.94
1527.85	174.08
1528.21	122.88
1528.57	235.52
1528.94	362.49
1529.30	102.40
1529.66	423.93
1530.03	104.45
1530.39	69.63
1530.75	473.08
1531.12	63.49
1531.48	417.79
1531.84	-114.69
1532.21	169.98
1532.57	264.19
1532.93	157.69
1533.29	223.23
1533.66	319.48
1534.02	-36.86
1534.38	223.23
1534.75	280.57
1535.11	227.32
1535.47	157.69
1535.83	317.44
1536.20	268.28
1536.56	272.38
1536.92	176.13
1537.28	174.08
1537.65	368.63
1538.01	464.89
1538.37	294.91
1538.74	143.36
1539.10	114.69
1539.46	378.87
1539.82	194.56
1540.19	372.73
1540.55	188.41
1540.91	333.82
1541.27	438.27
1541.63	167.93
1542.00	63.49
1542.36	124.93
1542.72	344.06
1543.08	360.44
1543.45	165.89
1543.81	192.51
1544.17	-53.25
1544.53	495.61
1544.89	40.96
1545.26	77.82
1545.62	161.79
1545.98	194.56
1546.34	233.47
1546.70	98.30
1547.07	301.05
1547.43	86.01
1547.79	270.33
1548.15	428.03
1548.51	223.23
1548.88	65.53
1549.24	-59.39
1549.60	247.80
1549.96	163.84
1550.32	36.86
1550.68	159.74
1551.05	264.19
1551.41	223.23
1551.77	122.88
1552.13	354.30
1552.49	151.55
1552.85	163.84
1553.22	188.41
1553.58	219.13
1553.94	301.05
1554.30	276.48
1554.66	258.04
1555.02	100.35
1555.38	16.38
1555.75	176.13
1556.11	157.69
1556.47	104.45
1556.83	2.05
1557.19	276.48
1557.55	235.52
1557.91	180.22
1558.27	188.41
1558.63	126.97
1559.00	65.54
1559.36	73.73
1559.72	51.20
1560.08	141.31
1560.44	176.13
1560.80	100.35
1561.16	374.78
1561.52	-143.36
1561.88	57.34
1562.24	188.41
1562.60	219.13
1562.97	102.40
1563.33	-106.49
1563.69	131.07
1564.05	26.62
1564.41	30.72
1564.77	-143.36
1565.13	137.21
1565.49	-86.01
1565.85	47.10
1566.21	28.67
1566.57	28.67
1566.93	196.60
1567.29	16.38
1567.65	276.48
1568.01	382.97
1568.37	38.91
1568.73	172.03
1569.09	241.66
1569.45	69.63
1569.82	198.65
1570.18	260.09
1570.54	-942.07
1570.90	63.49
1571.26	153.60
1571.62	151.55
1571.98	233.47
1572.34	114.69
1572.70	83.97
1573.06	-81.92
1573.42	22.53
1573.78	67.58
1574.14	194.56
1574.50	200.70
1574.86	-14.34
1575.22	153.60
1575.58	129.02
1575.94	251.90
1576.30	317.44
1576.66	147.45
1577.01	344.06
1577.37	198.65
1577.73	-45.06
1578.09	71.68
1578.45	-10.24
1578.81	81.92
1579.17	137.21
1579.53	215.04
1579.89	163.84
1580.25	161.79
1580.61	323.58
1580.97	-4.10
1581.33	73.73
1581.69	129.02
1582.05	65.53
1582.41	-14.34
1582.77	22.53
1583.13	2.05
1583.49	-147.45
1583.84	188.41
1584.20	167.93
1584.56	299.00
1584.92	-18.43
1585.28	303.10
1585.64	274.43
1586.00	-28.67
1586.36	-75.77
1586.72	24.58
1587.08	2.05
1587.44	51.20
1587.79	98.30
1588.15	40.96
1588.51	-18.43
1588.87	208.89
1589.23	182.27
1589.59	-16.38
1589.95	296.96
1590.31	100.35
1590.66	83.97
1591.02	225.28
1591.38	243.71
1591.74	-61.44
1592.10	178.17
1592.46	2.05
1592.82	28.67
1593.18	38.91
1593.53	57.34
1593.89	-153.60
1594.25	55.30
1594.61	83.97
1594.97	122.88
1595.33	34.82
1595.68	-139.26
1596.04	198.65
1596.40	415.74
1596.76	163.84
1597.12	-71.68
1597.48	-159.74
1597.83	2.05
1598.19	49.15
1598.55	-12.29
1598.91	-51.20
1599.27	14.34
1599.62	-71.68
1599.98	102.40
1600.34	225.28
1600.70	59.39
1601.06	-149.50
1601.41	75.77
1601.77	116.73
1602.13	223.23
1602.49	-77.82
1602.85	129.02
1603.20	204.80
1603.56	124.93
1603.92	108.54
1604.28	49.15
1604.63	186.37
1604.99	722.93
1605.35	188.41
1605.71	49.15
1606.06	-18.43
1606.42	200.70
1606.78	8.19
1607.14	231.42
1607.49	143.36
1607.85	-10.24
1608.21	-122.88
1608.57	149.50
1608.92	-235.52
1609.28	139.26
1609.64	169.98
1610.00	239.61
1610.35	30.72
1610.71	108.54
1611.07	61.44
1611.43	-53.25
1611.78	36.86
1612.14	253.95
1612.50	122.88
1612.85	258.04
1613.21	61.44
1613.57	-67.58
1613.92	-106.49
1614.28	79.87
1614.64	-92.16
1615.00	61.44
1615.35	-69.63
1615.71	114.69
1616.07	-14.34
1616.42	143.36
1616.78	217.08
1617.14	-94.21
1617.49	141.31
1617.85	131.07
1618.21	258.04
1618.56	143.36
1618.92	323.58
1619.28	0.00
1619.63	190.46
1619.99	-26.62
1620.35	153.60
1620.70	-92.16
1621.06	96.25
1621.42	-75.77
1621.77	-100.35
1622.13	63.49
1622.48	194.56
1622.84	149.50
1623.20	116.73
1623.55	253.95
1623.91	53.25
1624.27	73.73
1624.62	-73.73
1624.98	178.17
1625.33	235.52
1625.69	4.10
1626.05	229.37
1626.40	0.00
1626.76	182.27
1627.11	129.02
1627.47	-47.10
1627.83	-36.86
1628.18	20.48
1628.54	28.67
1628.89	169.98
1629.25	-180.22
1629.61	90.11
1629.96	-69.63
1630.32	-57.34
1630.67	174.08
1631.03	-116.73
1631.38	92.16
1631.74	-16.38
1632.10	245.76
1632.45	137.21
1632.81	-894.96
1633.16	-90.11
1633.52	10.24
1633.87	20.48
1634.23	-100.35
1634.58	30.72
1634.94	-24.58
1635.30	325.63
1635.65	-6.14
1636.01	-147.45
1636.36	-231.42
1636.72	165.89
1637.07	63.49
1637.43	36.86
1637.78	-118.78
1638.14	126.97
1638.49	-200.70
1638.85	98.30
1639.20	34.82
1639.56	126.97
1639.91	88.06
1640.27	79.87
1640.62	-6.14
1640.98	-167.93
1641.33	-145.41
1641.69	176.13
1642.04	18.43
1642.40	-243.71
1642.75	14.34
1643.11	34.82
1643.46	-202.75
1643.82	59.39
1644.17	219.13
1644.53	-30.72
1644.88	0.00
1645.24	233.47
1645.59	43.01
1645.94	223.23
1646.30	-36.86
1646.65	4.10
1647.01	-176.13
1647.36	57.34
1647.72	51.20
1648.07	-36.86
1648.43	-108.54
1648.78	-6.14
1649.14	-198.65
1649.49	61.44
1649.84	10.24
1650.20	-190.46
1650.55	59.39
1650.91	40.96
1651.26	202.75
1651.61	63.49
1651.97	-47.10
1652.32	-14.34
1652.68	10.24
1653.03	-165.89
1653.39	36.86
1653.74	28.67
1654.09	65.53
1654.45	-63.49
1654.80	108.54
1655.16	260.09
1655.51	-94.21
1655.86	108.54
1656.22	131.07
1656.57	174.08
1656.92	176.13
1657.28	-12.29
1657.63	-16.38
1657.99	-40.96
1658.34	55.30
1658.69	108.54
1659.05	-32.77
1659.40	6.14
1659.75	-100.35
1660.11	22.53
1660.46	155.65
1660.81	106.49
1661.17	94.21
1661.52	-215.04
1661.87	129.02
1662.23	59.39
1662.58	59.39
1662.93	-155.65
1663.29	-20.48
1663.64	-303.10
1663.99	-100.35
1664.35	-10.24
1664.70	-57.34
1665.05	43.01
1665.41	-49.15
1665.76	149.50
1666.11	69.63
1666.47	143.36
1666.82	151.55
1667.17	30.72
1667.52	112.64
1667.88	106.49
1668.23	45.06
1668.58	12.29
1668.94	0.00
1669.29	264.19
1669.64	-100.35
1670.00	241.66
1670.35	251.90
1670.70	18.43
1671.05	-71.68
1671.41	-100.35
1671.76	-10.24
1672.11	323.58
1672.46	114.69
1672.82	-129.02
1673.17	69.63
1673.52	73.73
1673.87	61.44
1674.23	-24.58
1674.58	108.54
1674.93	-116.73
1675.28	-88.06
1675.64	-153.60
1675.99	-26.62
1676.34	143.36
1676.69	49.15
1677.05	-131.07
1677.40	-71.68
1677.75	57.34
1678.10	-40.96
1678.45	-30.72
1678.81	24.58
1679.16	196.60
1679.51	249.85
1679.86	0.00
1680.21	45.06
1680.57	120.83
1680.92	59.39
1681.27	301.05
1681.62	61.44
1681.97	-65.53
1682.33	51.20
1682.68	172.03
1683.03	-8.19
1683.38	120.83
1683.73	102.40
1684.08	217.08
1684.44	217.08
1684.79	-8.19
1685.14	18.43
1685.49	-217.08
1685.84	-223.23
1686.19	0.00
1686.55	172.03
1686.90	-51.20
1687.25	79.87
1687.60	210.94
1687.95	-116.73
1688.30	-122.88
1688.65	364.54
1689.01	204.80
1689.36	-71.68
1689.71	-38.91
1690.06	-43.01
1690.41	53.25
1690.76	-36.86
1691.11	-108.54
1691.46	-30.72
1691.82	77.82
1692.17	77.82
1692.52	-38.91
1692.87	47.10
1693.22	-14.34
1693.57	-159.74
1693.92	98.30
1694.27	77.82
1694.62	67.58
1694.97	-61.44
1695.33	0.00
1695.68	63.49
1696.03	-71.68
1696.38	141.31
1696.73	196.60
1697.08	350.20
1697.43	63.49
1697.78	-182.27
1698.13	26.62
1698.48	-24.58
1698.83	-77.82
1699.18	96.25
1699.53	-43.01
1699.88	157.69
1700.24	-249.85
1700.59	-159.74
1700.94	161.79
1701.29	-34.82
1701.64	-100.35
1701.99	-61.44
1702.34	112.64
1702.69	59.39
1703.04	69.63
1703.39	67.58
1703.74	-8.19
1704.09	-63.49
1704.44	-83.97
1704.79	-98.30
1705.14	-184.32
1705.49	36.86
1705.84	299.00
1706.19	-2.05
1706.54	43.01
1706.89	-108.54
1707.24	-20.48
1707.59	-6.14
1707.94	34.82
1708.29	26.62
1708.64	51.20
1708.99	-30.72
1709.34	-92.16
1709.69	32.77
1710.04	20.48
1710.39	-69.63
1710.74	133.12
1711.09	18.43
1711.44	32.77
1711.79	151.55
1712.14	20.48
1712.49	147.45
1712.84	176.13
1713.18	-305.15
1713.53	77.82
1713.88	139.26
1714.23	139.26
1714.58	157.69
1714.93	88.06
1715.28	-59.39
1715.63	22.53
1715.98	280.57
1716.33	45.06
1716.68	-45.06
1717.03	178.17
1717.38	147.45
1717.73	-176.13
1718.08	-55.30
1718.42	110.59
1718.77	-49.15
1719.12	-106.49
1719.47	65.53
1719.82	94.21
1720.17	190.46
1720.52	81.92
1720.87	-83.97
1721.22	-96.25
1721.57	40.96
1721.91	20.48
1722.26	258.04
1722.61	176.13
1722.96	-12.29
1723.31	-12.29
1723.66	237.56
1724.01	149.50
1724.36	83.97
1724.70	-47.10
1725.05	71.68
1725.40	-30.72
1725.75	14.34
1726.10	274.43
1726.45	26.62
1726.80	-176.13
1727.14	223.23
1727.49	-28.67
1727.84	-174.08
1728.19	309.24
1728.54	143.36
1728.89	4.10
1729.23	24.58
1729.58	212.99
1729.93	28.67
1730.28	69.63
1730.63	-77.82
1730.97	63.49
1731.32	38.91
1731.67	6.14
1732.02	120.83
1732.37	47.10
1732.72	-147.45
1733.06	36.86
1733.41	374.78
1733.76	30.72
1734.11	47.10
1734.46	-8.19
1734.80	-81.92
1735.15	43.01
1735.50	307.20
1735.85	28.67
1736.19	65.53
1736.54	-4.10
>>>>>End Processed Spectral Data<<<<<
