SpectraSuite Data File
++++++++++++++++++++++++++++++++++++
Date: Tue Feb 05 15:02:53 EET 2019
User: demo
Dark Spectrum Present: Yes
Reference Spectrum Present: Yes
Number of Sampled Component Spectra: 1
Spectrometers: USB4H03366
Integration Time (usec): 20000000 (USB4H03366)
Spectra Averaged: 1 (USB4H03366)
Boxcar Smoothing: 0 (USB4H03366)
Correct for Electrical Dark: No (USB4H03366)
Strobe/Lamp Enabled: No (USB4H03366)
Correct for Detector Non-linearity: No (USB4H03366)
Correct for Stray Light: No (USB4H03366)
Number of Pixels in Processed Spectrum: 3648
>>>>>Begin Processed Spectral Data<<<<<
291.48	-10.24
291.93	-10.24
292.37	-10.24
292.82	2.05
293.26	-38.91
293.70	6.14
294.15	-40.96
294.59	47.10
295.04	57.34
295.48	114.69
295.93	57.34
296.37	-106.49
296.82	-157.69
297.26	221.18
297.71	135.17
298.15	96.25
298.59	-2.05
299.04	88.06
299.48	-124.93
299.93	79.87
300.37	219.13
300.82	124.93
301.26	110.59
301.70	88.06
302.15	-26.62
302.59	83.97
303.04	-90.11
303.48	83.97
303.92	-65.53
304.37	20.48
304.81	61.44
305.26	937.97
305.70	219.13
306.14	81.92
306.59	112.64
307.03	81.92
307.47	57.34
307.92	141.31
308.36	43.01
308.81	-147.45
309.25	43.01
309.69	294.91
310.14	137.21
310.58	-40.96
311.02	122.88
311.47	215.04
311.91	172.03
312.36	-124.93
312.80	65.53
313.24	-86.01
313.69	14.34
314.13	16.38
314.57	137.21
315.02	-28.67
315.46	-32.77
315.90	129.02
316.35	-22.53
316.79	270.33
317.23	296.96
317.68	149.50
318.12	135.17
318.56	-12.29
319.00	159.74
319.45	79.87
319.89	-69.63
320.33	233.47
320.78	-4.10
321.22	180.22
321.66	-63.49
322.11	12.29
322.55	145.41
322.99	-176.13
323.43	239.61
323.88	8.19
324.32	-51.20
324.76	266.24
325.21	202.75
325.65	73.73
326.09	-32.77
326.53	335.87
326.98	286.72
327.42	198.65
327.86	-151.55
328.30	100.35
328.75	-47.10
329.19	-22.53
329.63	122.88
330.07	839.67
330.52	28.67
330.96	172.03
331.40	434.17
331.84	-12.29
332.29	34.82
332.73	245.76
333.17	12.29
333.61	14.34
334.05	-159.74
334.50	155.65
334.94	-94.21
335.38	14.34
335.82	182.27
336.27	124.93
336.71	67.58
337.15	96.25
337.59	6.14
338.03	65.53
338.47	14.34
338.92	57.34
339.36	147.45
339.80	47.10
340.24	118.78
340.68	-10.24
341.13	-67.58
341.57	73.73
342.01	131.07
342.45	-102.40
342.89	151.55
343.33	-122.88
343.78	-124.93
344.22	139.26
344.66	-67.58
345.10	40.96
345.54	192.51
345.98	192.51
346.43	165.89
346.87	-133.12
347.31	-38.91
347.75	124.93
348.19	112.64
348.63	122.88
349.07	157.69
349.51	-26.62
349.96	393.21
350.40	-14.34
350.84	69.63
351.28	112.64
351.72	268.28
352.16	34.82
352.60	333.82
353.04	102.40
353.49	30.72
353.93	-38.91
354.37	-10.24
354.81	12.29
355.25	110.59
355.69	-75.77
356.13	-2.05
356.57	12.29
357.01	92.16
357.45	120.83
357.89	112.64
358.33	184.32
358.78	-51.20
359.22	270.33
359.66	65.53
360.10	145.41
360.54	-36.86
360.98	118.78
361.42	26.62
361.86	260.09
362.30	122.88
362.74	-83.97
363.18	202.75
363.62	178.17
364.06	36.86
364.50	57.34
364.94	108.54
365.38	65.54
365.82	-36.86
366.26	229.37
366.70	126.97
367.14	-22.53
367.58	167.93
368.02	-34.82
368.46	51.20
368.90	-210.94
369.34	-600.05
369.78	-24.58
370.22	-16.38
370.66	112.64
371.10	141.31
371.54	219.13
371.98	34.82
372.42	178.17
372.86	34.82
373.30	360.44
373.74	-112.64
374.18	92.16
374.62	2.05
375.06	-92.16
375.50	247.80
375.94	133.12
376.38	49.15
376.82	784.37
377.26	233.47
377.70	145.41
378.14	278.52
378.58	-57.34
379.02	313.34
379.46	45.06
379.90	49.15
380.34	403.45
380.78	135.17
381.22	210.94
381.66	229.37
382.10	233.47
382.53	317.44
382.97	108.54
383.41	147.45
383.85	104.45
384.29	83.97
384.73	118.78
385.17	264.19
385.61	311.29
386.05	14.34
386.49	-47.10
386.93	43.01
387.36	57.34
387.80	-6.14
388.24	198.65
388.68	-26.62
389.12	-24.58
389.56	147.45
390.00	356.35
390.44	245.76
390.88	253.95
391.31	-8.19
391.75	145.41
392.19	237.56
392.63	309.24
393.07	186.37
393.51	348.15
393.95	38.91
394.39	36.86
394.82	112.64
395.26	61.44
395.70	18.43
396.14	204.80
396.58	-69.63
397.02	321.53
397.45	180.22
397.89	210.94
398.33	161.79
398.77	120.83
399.21	395.26
399.65	419.83
400.08	153.60
400.52	317.44
400.96	126.97
401.40	311.29
401.84	294.91
402.27	217.08
402.71	276.48
403.15	292.86
403.59	253.95
404.03	151.55
404.46	210.94
404.90	180.22
405.34	440.31
405.78	223.23
406.22	217.08
406.65	329.72
407.09	313.34
407.53	380.92
407.97	178.17
408.40	313.34
408.84	354.30
409.28	423.93
409.72	329.72
410.16	178.17
410.59	264.19
411.03	165.89
411.47	331.77
411.91	516.09
412.34	290.81
412.78	442.36
413.22	452.60
413.66	589.82
414.09	448.51
414.53	667.64
414.97	471.03
415.40	503.80
415.84	567.29
416.28	276.48
416.72	301.05
417.15	368.63
417.59	571.38
418.03	620.53
418.46	587.77
418.90	540.66
419.34	507.90
419.78	552.95
420.21	575.48
420.65	573.43
421.09	487.42
421.52	612.34
421.96	620.53
422.40	872.43
422.83	686.07
423.27	718.84
423.71	555.00
424.14	675.83
424.58	919.54
425.02	737.27
425.45	804.85
425.89	765.94
426.33	706.55
426.76	528.38
427.20	630.77
427.64	733.17
428.07	694.26
428.51	677.88
428.95	950.26
429.38	720.89
429.82	825.33
430.26	731.12
430.69	727.03
431.13	929.78
431.57	1062.90
432.00	1193.97
432.44	901.11
432.87	976.88
433.31	923.63
433.75	825.33
434.18	970.74
434.62	1128.43
435.05	835.57
435.49	997.36
435.93	1021.94
436.36	987.12
436.80	899.06
437.23	917.49
437.67	1056.75
438.11	1036.27
438.54	1335.28
438.98	1183.73
439.41	1265.64
439.85	1302.51
440.29	1206.25
440.72	1019.89
441.16	1204.21
441.59	1243.12
442.03	1110.00
442.46	1431.53
442.90	927.73
443.34	1417.19
443.77	1140.72
444.21	1366.00
444.64	1363.95
445.08	1331.18
445.51	1609.70
445.95	1474.54
446.38	1531.88
446.82	1433.58
447.25	1482.73
447.69	1619.94
448.13	1529.83
448.56	1466.35
449.00	1593.32
449.43	1574.89
449.87	1511.40
450.30	1665.00
450.74	1576.94
451.17	1665.00
451.61	1834.98
452.04	1605.61
452.48	1708.01
452.91	2090.98
453.35	1716.20
453.78	1755.11
454.22	1667.05
454.65	2105.31
455.09	1920.99
455.52	2146.27
455.96	2187.23
456.39	2099.17
456.83	2234.33
457.26	2314.20
457.69	2009.06
458.13	2240.48
458.56	2510.81
459.00	2082.78
459.43	2592.73
459.87	2402.27
460.30	2633.69
460.74	2627.54
461.17	2559.96
461.61	2846.68
462.04	2914.26
462.47	2719.70
462.91	2844.63
463.34	2854.87
463.78	3014.61
464.21	2971.60
464.65	3035.09
465.08	3143.63
465.51	3373.00
465.95	3049.43
466.38	3219.41
466.82	3286.99
467.25	3557.32
467.69	3411.92
468.12	3774.41
468.55	3735.49
468.99	3735.49
469.42	3971.01
469.86	4057.03
470.29	4186.05
470.72	3100.62
471.16	4116.42
471.59	4327.36
472.03	4392.89
472.46	4585.40
472.89	4442.04
473.33	4732.86
473.76	5001.14
474.19	4976.56
474.63	4646.84
475.06	5099.44
475.49	5451.69
475.93	5384.11
476.36	5625.77
476.80	5965.73
477.23	5980.07
477.66	5738.41
478.10	6434.72
478.53	6352.80
478.96	6686.62
479.40	6834.07
479.83	7200.66
480.26	6848.41
480.70	7450.51
481.13	7577.48
481.56	7436.17
482.00	7505.81
482.43	8069.00
482.86	7790.47
483.30	7954.31
483.73	8159.11
484.16	8783.74
484.59	8306.56
485.03	9135.99
485.46	9283.44
485.89	9301.87
486.33	10051.43
486.76	9580.40
487.19	9654.12
487.63	9959.27
488.06	10266.47
488.49	10739.55
488.92	10227.56
489.36	11292.50
489.79	10571.61
490.22	11345.75
490.65	10932.06
491.09	11816.78
491.52	11951.95
491.95	12449.60
492.38	12687.17
492.82	12912.44
493.25	12992.31
493.68	12531.52
494.11	13551.41
494.55	13539.12
494.98	13686.58
495.41	14092.07
495.84	14106.41
496.28	14376.74
496.71	14450.47
497.14	14726.94
497.57	15009.56
498.01	15279.89
498.44	15589.14
498.87	15503.12
499.30	16310.02
499.73	15877.90
500.17	16541.44
500.60	16547.59
501.03	16760.58
501.46	17129.21
501.89	16951.04
502.33	17223.42
502.76	17436.41
503.19	17219.32
503.62	18380.52
504.05	18560.74
504.49	18646.76
504.92	18163.43
505.35	19007.20
505.78	18185.96
506.21	18581.22
506.64	19580.63
507.08	18771.68
507.51	19810.00
507.94	19287.77
508.37	19807.95
508.80	20852.42
509.23	20774.60
509.67	20211.40
510.10	21442.23
510.53	21575.35
510.96	21728.95
511.39	21075.65
511.82	21802.68
512.25	22091.44
512.69	21505.72
513.12	22269.61
513.55	22607.53
513.98	22343.34
514.41	22714.02
514.84	22920.87
515.27	22916.77
515.70	23408.28
516.14	23514.78
516.57	23211.68
517.00	23418.52
517.43	23176.86
517.86	23565.98
518.29	22380.20
518.72	23811.73
519.15	23752.34
519.58	23498.39
520.01	24364.68
520.45	23686.81
520.88	23811.73
521.31	23852.69
521.74	23684.76
522.17	24059.54
522.60	24417.93
523.03	24370.83
523.46	23824.02
523.89	24561.29
524.32	24604.30
524.75	24729.22
525.18	24530.57
525.61	24608.39
526.04	24245.90
526.47	24239.76
526.90	24204.94
527.33	23991.95
527.77	24069.78
528.20	23924.37
528.63	24057.49
529.06	24186.51
529.49	23748.25
529.92	24399.50
530.35	24675.98
530.78	23895.70
531.21	24569.48
531.64	23858.84
532.07	23828.12
532.50	23756.44
532.93	23473.82
533.36	23436.95
533.79	24037.01
534.22	23971.47
534.65	23957.14
535.08	24489.61
535.51	24051.34
535.94	23334.56
536.37	23170.72
536.80	23479.96
537.23	23379.61
537.66	23307.93
538.09	22800.04
538.52	23281.31
538.95	22787.75
539.38	23174.81
539.81	23027.36
540.24	23160.48
540.66	22208.17
541.09	23320.22
541.52	23250.59
541.95	23400.09
542.38	23223.97
542.81	23432.86
543.24	22816.42
543.67	23230.11
544.10	22531.75
544.53	23078.56
544.96	22554.28
545.39	23133.86
545.82	22982.31
546.25	22695.59
546.68	23488.15
547.11	23328.41
547.53	23381.66
547.96	23346.84
548.39	22359.72
548.82	23346.84
549.25	22707.88
549.68	23514.78
550.11	23533.21
550.54	23754.39
550.97	23393.95
551.40	23240.35
551.82	23502.49
552.25	24016.53
552.68	23238.30
553.11	23404.19
553.54	24067.73
553.97	23873.17
554.40	23533.21
554.83	24503.95
555.26	23488.15
555.68	24684.17
556.11	24931.97
556.54	24751.75
556.97	23924.37
557.40	24829.57
557.83	24839.81
558.26	25622.14
558.68	25499.26
559.11	25900.66
559.54	25364.09
559.97	25708.15
560.40	25755.26
560.83	26087.03
561.25	26179.18
561.68	26502.76
562.11	26316.40
562.54	26486.38
562.97	26164.85
563.40	26429.04
563.82	26502.76
564.25	26627.69
564.68	26859.11
565.11	27244.13
565.54	26732.14
565.96	27258.46
566.39	27276.90
566.82	28089.94
567.25	27625.05
567.68	27770.46
568.10	27989.59
568.53	27868.76
568.96	28517.96
569.39	28210.77
569.81	28130.90
570.24	28517.96
570.67	29107.78
571.10	28429.90
571.53	28530.25
571.95	29267.52
572.38	29048.39
572.81	29410.88
573.24	29750.84
573.66	29828.66
574.09	30135.86
574.52	29613.63
574.95	29107.78
575.37	30350.90
575.80	29183.55
576.23	30262.83
576.66	30381.62
577.08	30242.35
577.51	29218.37
577.94	29976.12
578.36	30475.82
578.79	30953.00
579.22	30819.88
579.65	30578.22
580.07	31151.65
580.50	29294.14
580.93	30885.42
581.36	31489.57
581.78	30987.82
582.21	30586.41
582.64	31333.92
583.06	31272.48
583.49	31268.39
583.92	30588.46
584.34	31401.50
584.77	31102.50
585.20	30881.32
585.62	30830.12
586.05	31432.22
586.48	31626.78
586.90	31442.46
587.33	31348.26
587.76	31905.31
588.18	31286.82
588.61	30543.41
589.04	31260.20
589.46	30854.70
589.89	31401.50
590.32	30436.91
590.74	32253.46
591.17	32540.18
591.60	31589.92
592.02	32337.43
592.45	31053.35
592.88	31385.12
593.30	31780.38
593.73	32456.21
594.15	31356.45
594.58	31397.41
595.01	31186.47
595.43	30864.94
595.86	31174.18
596.29	32101.91
596.71	31686.17
597.14	31634.97
597.56	31161.89
597.99	32435.73
598.42	31249.96
598.84	32077.33
599.27	32017.94
599.69	32445.97
600.12	32286.23
600.55	32706.06
600.97	31626.78
601.40	32161.30
601.82	32175.64
602.25	31073.83
602.67	30832.17
603.10	31047.21
603.53	31391.26
603.95	31677.98
604.38	30838.31
604.80	31034.92
605.23	31313.44
605.65	31518.24
606.08	31374.88
606.50	31960.60
606.93	30475.82
607.36	31389.22
607.78	31473.18
608.21	31344.16
608.63	31788.57
609.06	31917.59
609.48	30983.72
609.91	31532.57
610.33	30477.87
610.76	31518.24
611.18	31135.27
611.61	31340.07
612.03	31077.93
612.46	30844.46
612.88	29961.78
613.31	30692.91
613.73	27326.05
614.16	30641.71
614.58	30758.44
615.01	29627.96
615.43	30060.09
615.86	29400.64
616.28	29271.62
616.71	29550.14
617.13	29474.37
617.56	29587.00
617.98	29716.03
618.41	29580.86
618.83	29259.33
619.26	28704.33
619.68	29044.29
620.11	29328.96
620.53	28972.61
620.96	28765.77
621.38	29017.67
621.81	29013.57
622.23	28837.45
622.65	28835.40
623.08	28700.23
623.50	28157.52
623.93	27870.81
624.35	28266.06
624.78	27950.68
625.20	27176.55
625.62	27655.77
626.05	27559.52
626.47	27760.22
626.90	27889.24
627.32	27194.98
627.75	26695.27
628.17	26343.02
628.59	26121.84
629.02	26080.88
629.44	26136.18
629.87	25955.96
630.29	26482.28
630.71	23336.60
631.14	25884.28
631.56	26613.35
631.99	26332.78
632.41	26123.89
632.83	25634.42
633.26	25251.45
633.68	24882.82
634.11	24813.19
634.53	25585.27
634.95	25380.48
635.38	25773.69
635.80	25214.59
636.22	24743.56
636.65	24755.85
637.07	25190.02
637.49	24876.68
637.92	23377.56
638.34	24667.78
638.76	24030.87
639.19	23762.58
639.61	24479.37
640.04	24110.74
640.46	24112.78
640.88	23907.99
641.31	23289.50
641.73	23375.52
642.15	23400.09
642.57	23633.56
643.00	21481.14
643.42	23375.52
643.84	23008.93
644.27	22578.86
644.69	22136.49
645.11	22585.00
645.54	22486.70
645.96	22429.35
646.38	22505.13
646.81	22165.17
647.23	22294.19
647.65	21821.11
648.07	21749.43
648.50	21872.31
648.92	21374.65
649.34	20684.48
649.77	21118.65
650.19	21358.27
650.61	21182.14
651.03	20819.65
651.46	21350.07
651.88	21575.35
652.30	21141.18
652.72	20680.39
653.15	20131.53
653.57	21014.21
653.99	21128.89
654.41	20760.26
654.84	19179.23
655.26	20491.98
655.68	20670.15
656.10	20930.24
656.53	20723.40
656.95	20346.57
657.37	20332.23
657.79	20500.17
658.22	20025.04
658.64	20369.10
659.06	20115.15
659.48	20084.43
659.90	20100.81
660.33	20014.80
660.75	19390.17
661.17	19207.90
661.59	19994.32
662.02	19853.01
662.44	19474.13
662.86	19994.32
663.28	18691.81
663.70	18642.66
664.12	19338.97
664.55	19273.43
664.97	19683.03
665.39	19525.33
665.81	19214.04
666.23	19433.18
666.66	19541.72
667.08	19328.73
667.50	19474.13
667.92	19414.74
668.34	18435.81
668.76	19513.05
669.19	19027.68
669.61	19093.21
670.03	18743.01
670.45	18851.55
670.87	18552.55
671.29	18419.43
671.71	18366.18
672.14	18706.15
672.56	18534.12
672.98	18292.46
673.40	18364.14
673.82	18095.85
674.24	18337.51
674.66	18394.86
675.08	18112.24
675.51	18007.79
675.93	17911.53
676.35	18163.43
676.77	17829.62
677.19	17563.38
677.61	17565.43
678.03	17567.48
678.45	17665.78
678.87	17510.13
679.29	17155.83
679.72	17301.24
680.14	17311.48
680.56	17291.00
680.98	17452.79
681.40	17184.51
681.82	17557.24
682.24	16881.41
682.66	17198.84
683.08	17344.25
683.50	17260.28
683.92	17159.93
684.34	17075.96
684.76	17129.21
685.18	17053.44
685.61	17336.06
686.03	16924.41
686.45	16387.85
686.87	16676.61
687.29	16766.72
687.71	17002.24
688.13	16756.48
688.55	16674.56
688.97	16383.75
689.39	16815.87
689.81	16416.52
690.23	16566.02
690.65	17006.33
691.07	16742.14
691.49	16428.81
691.91	16271.11
692.33	16084.75
692.75	16170.76
693.17	16262.92
693.59	16242.44
694.01	15816.46
694.43	15851.28
694.85	15963.92
695.27	16260.87
695.69	16361.22
696.11	16463.62
696.53	16150.28
696.95	14810.91
697.37	16346.89
697.79	15038.23
698.21	15533.84
698.63	16262.92
699.05	15812.37
699.47	15777.55
699.89	15228.70
700.31	15738.64
700.73	16193.29
701.15	15789.84
701.57	15879.95
701.98	15623.95
702.40	15716.11
702.82	15714.06
703.24	15230.74
703.66	15243.03
704.08	16092.94
704.50	15808.27
704.92	15589.14
705.34	15669.01
705.76	15509.27
706.18	15015.71
706.60	15660.82
707.02	15320.85
707.44	15666.96
707.85	15271.70
708.27	15517.46
708.69	15537.94
709.11	15882.00
709.53	15099.67
709.95	14956.32
710.37	15245.08
710.79	14847.77
711.21	14714.66
711.63	14866.21
712.04	14204.71
712.46	14483.24
712.88	14284.58
713.30	13410.10
713.72	14057.26
714.14	14090.03
714.56	14245.67
714.98	14264.10
715.39	13893.42
715.81	13838.12
716.23	13885.23
716.65	13629.23
717.07	13791.02
717.49	13592.37
717.91	13573.94
718.32	13739.82
718.74	13584.18
719.16	13133.62
719.58	13283.13
720.00	13344.56
720.42	12900.16
720.83	13197.11
721.25	12734.27
721.67	12599.10
722.09	12478.27
722.51	12500.80
722.93	12042.06
723.34	12074.82
723.76	11857.74
724.18	11638.61
724.60	11784.01
725.02	11904.84
725.43	11341.65
725.85	11683.66
726.27	11638.61
726.69	11722.57
727.11	11163.48
727.52	11368.27
727.94	11282.26
728.36	11116.37
728.78	11241.30
729.19	10911.58
729.61	11091.80
730.03	11183.96
730.45	10751.84
730.87	10581.85
731.28	10825.56
731.70	10510.18
732.12	10565.47
732.54	10329.95
732.95	10321.76
733.37	10229.60
733.79	10192.74
734.21	9430.90
734.62	9895.78
735.04	9938.79
735.46	9865.07
735.87	9684.84
736.29	9639.79
736.71	11847.50
737.13	9807.72
737.54	9469.81
737.96	9322.35
738.38	8904.57
738.80	8687.48
739.21	9125.75
739.63	9131.89
740.05	8828.79
740.46	9033.59
740.88	8294.27
741.30	7151.51
741.71	8355.71
742.13	8601.47
742.55	8333.18
742.97	8439.68
743.38	8187.78
743.80	8445.82
744.22	8361.86
744.63	8021.89
745.05	7681.93
745.47	7901.06
745.88	8116.10
746.30	7690.12
746.72	7618.44
747.13	7413.65
747.55	7348.11
747.97	6877.08
748.38	6991.77
748.80	7026.58
749.22	6885.27
749.63	6940.57
750.05	6559.64
750.46	6639.51
750.88	6676.38
751.30	6410.14
751.71	5892.01
752.13	6313.89
752.55	6262.69
752.96	5857.19
753.38	5998.50
753.79	6059.94
754.21	5814.18
754.63	5593.00
755.04	5656.49
755.46	5818.28
755.88	5513.13
756.29	5760.94
756.71	5631.91
757.12	5044.15
757.54	5349.29
757.96	4976.56
758.37	4988.85
758.79	4736.95
759.20	4980.66
759.62	4859.83
760.03	4681.66
760.45	4650.94
760.87	4822.97
761.28	4673.46
761.70	4505.53
762.11	4173.76
762.53	4302.78
762.94	4249.54
763.36	4085.70
763.78	4106.18
764.19	4040.64
764.61	3925.96
765.02	3768.26
765.44	3796.93
765.85	3682.25
766.27	3946.44
766.68	3723.21
767.10	3725.26
767.51	3479.50
767.93	3717.06
768.34	3768.26
768.76	3563.47
769.18	3596.23
769.59	3289.04
770.01	3620.81
770.42	3536.84
770.84	3461.07
771.25	3184.59
771.67	3233.74
772.08	3145.68
772.50	3209.17
772.91	3094.48
773.33	3182.54
773.74	3129.30
774.16	2998.23
774.57	3110.86
774.99	2920.40
775.40	2990.03
775.81	3594.19
776.23	3055.57
776.64	2766.81
777.06	2891.73
777.47	2658.26
777.89	2602.97
778.30	2637.78
778.72	2944.98
779.13	2490.33
779.55	2559.96
779.96	2592.73
780.38	2373.60
780.79	2494.43
781.20	2559.96
781.62	2508.76
782.03	2285.53
782.45	2150.37
782.86	2748.37
783.28	2373.60
783.69	2320.35
784.10	2240.48
784.52	1998.82
784.93	2320.35
785.35	2246.62
785.76	2203.61
786.18	2400.22
786.59	2183.13
787.00	1984.48
787.42	2150.37
787.83	1996.77
788.25	2035.68
788.66	1990.63
789.07	2004.96
789.49	2000.87
789.90	2090.98
790.32	2156.51
790.73	1929.19
791.14	1763.30
791.56	1972.19
791.97	1951.71
792.38	1679.33
792.80	1986.53
793.21	1828.84
793.62	1669.09
794.04	1841.12
794.45	1587.18
794.87	1789.92
795.28	1808.36
795.69	1587.18
796.11	1505.26
796.52	1673.19
796.93	1460.20
797.35	1265.64
797.76	1396.71
798.17	1406.95
798.59	1396.71
799.00	1425.39
799.41	1368.04
799.83	1443.82
800.24	1296.36
800.65	1099.76
801.07	1310.70
801.48	1136.62
801.89	1138.67
802.31	1023.98
802.72	1136.62
803.13	1044.46
803.54	1069.04
803.96	839.67
804.37	1087.47
804.78	806.90
805.20	897.01
805.61	704.50
806.02	675.83
806.43	626.68
806.85	720.88
807.26	991.22
807.67	700.41
808.09	421.88
808.50	370.68
808.91	530.42
809.32	704.50
809.74	522.23
810.15	528.38
810.56	563.19
810.97	542.71
811.39	253.95
811.80	559.10
812.21	370.68
812.62	-227.32
813.04	468.98
813.45	491.51
813.86	391.16
814.27	284.67
814.68	368.63
815.10	284.67
815.51	393.21
815.92	315.39
816.33	411.64
816.75	299.00
817.16	219.13
817.57	307.20
817.98	571.38
818.39	266.24
818.81	292.86
819.22	133.12
819.63	182.27
820.04	98.30
820.45	348.15
820.87	315.39
821.28	212.99
821.69	405.50
822.10	284.67
822.51	380.92
822.92	237.56
823.34	229.37
823.75	262.14
824.16	-2633.69
824.57	305.15
824.98	425.98
825.39	514.04
825.81	358.39
826.22	378.87
826.63	421.88
827.04	147.45
827.45	415.74
827.86	325.63
828.28	405.50
828.69	366.59
829.10	372.73
829.51	172.03
829.92	393.21
830.33	286.72
830.74	352.25
831.15	129.02
831.57	182.27
831.98	452.60
832.39	180.22
832.80	268.28
833.21	212.99
833.62	147.45
834.03	251.90
834.44	458.74
834.85	192.51
835.26	403.45
835.68	249.85
836.09	348.15
836.50	264.19
836.91	440.31
837.32	141.31
837.73	227.32
838.14	163.84
838.55	-71.68
838.96	231.42
839.37	358.39
839.78	256.00
840.19	143.36
840.60	32.77
841.02	34.82
841.43	92.16
841.84	212.99
842.25	-71.68
842.66	204.80
843.07	356.35
843.48	243.71
843.89	102.40
844.30	8.19
844.71	-2.05
845.12	182.27
845.53	96.25
845.94	-4.10
846.35	114.69
846.76	-40.96
847.17	303.10
847.58	204.80
847.99	147.45
848.40	151.55
848.81	174.08
849.22	159.74
849.63	75.77
850.04	145.41
850.45	18.43
850.86	157.69
851.27	325.63
851.68	192.51
852.09	90.11
852.50	106.49
852.91	90.11
853.32	104.45
853.73	241.66
854.14	120.83
854.55	192.51
854.96	92.16
855.37	202.75
855.78	196.61
856.19	153.60
856.60	301.05
857.01	55.30
857.42	94.21
857.83	247.80
858.24	194.56
858.64	26.62
859.05	79.87
859.46	67.58
859.87	147.45
860.28	47.10
860.69	247.80
861.10	77.82
861.51	276.48
861.92	210.94
862.33	145.41
862.74	161.79
863.15	118.78
863.56	251.90
863.96	278.52
864.37	249.85
864.78	167.93
865.19	385.02
865.60	249.85
866.01	251.90
866.42	178.17
866.83	129.02
867.24	317.44
867.65	303.10
868.05	260.09
868.46	163.84
868.87	417.79
869.28	342.01
869.69	280.57
870.10	1140.72
870.51	268.28
870.92	339.96
871.32	382.97
871.73	260.09
872.14	389.11
872.55	1798.12
872.96	262.14
873.37	473.08
873.77	391.16
874.18	208.89
874.59	260.09
875.00	514.04
875.41	526.33
875.82	337.91
876.22	296.96
876.63	360.44
877.04	440.31
877.45	217.08
877.86	284.67
878.27	219.13
878.67	376.83
879.08	182.27
879.49	176.13
879.90	413.69
880.31	505.85
880.71	368.63
881.12	425.98
881.53	425.98
881.94	374.78
882.35	395.26
882.75	436.22
883.16	278.52
883.57	303.10
883.98	174.08
884.38	186.37
884.79	157.69
885.20	307.20
885.61	352.25
886.02	49.15
886.42	462.84
886.83	264.19
887.24	296.96
887.65	167.93
888.05	133.12
888.46	430.07
888.87	221.18
889.28	292.86
889.68	276.48
890.09	378.87
890.50	194.56
890.91	102.40
891.31	307.20
891.72	223.23
892.13	319.48
892.53	120.83
892.94	401.40
893.35	-43.01
893.76	151.55
894.16	212.99
894.57	81.92
894.98	98.30
895.38	100.35
895.79	135.17
896.20	96.25
896.61	518.14
897.01	311.29
897.42	-30.72
897.83	174.08
898.23	223.23
898.64	233.47
899.05	260.09
899.45	104.45
899.86	71.68
900.27	210.94
900.67	167.93
901.08	176.13
901.49	61.44
901.89	108.54
902.30	53.25
902.71	231.42
903.11	57.34
903.52	260.09
903.93	36.86
904.33	22.53
904.74	104.45
905.15	4.10
905.55	190.46
905.96	112.64
906.36	53.25
906.77	-45.06
907.18	174.08
907.58	106.49
907.99	100.35
908.40	169.98
908.80	86.01
909.21	2.05
909.61	157.69
910.02	243.71
910.43	126.97
910.83	-141.31
911.24	2.05
911.64	92.16
912.05	-24.58
912.46	212.99
912.86	159.74
913.27	43.01
913.67	409.59
914.08	235.52
914.48	198.65
914.89	67.58
915.30	-141.31
915.70	34.82
916.11	83.97
916.51	161.79
916.92	184.32
917.32	120.83
917.73	90.11
918.14	61.44
918.54	233.47
918.95	122.88
919.35	53.25
919.76	188.41
920.16	360.44
920.57	135.17
920.97	88.06
921.38	208.89
921.78	153.60
922.19	90.11
922.59	49.15
923.00	88.06
923.41	0.00
923.81	69.63
924.22	49.15
924.62	40.96
925.03	-6.14
925.43	38.91
925.84	81.92
926.24	172.03
926.65	339.96
927.05	159.74
927.46	81.92
927.86	-12.29
928.27	346.11
928.67	-47.10
929.08	161.79
929.48	434.17
929.88	143.36
930.29	309.24
930.69	47.10
931.10	307.20
931.50	79.87
931.91	116.73
932.31	16.38
932.72	-32.77
933.12	26.62
933.53	102.40
933.93	184.32
934.34	-126.97
934.74	294.91
935.14	120.83
935.55	94.21
935.95	239.61
936.36	-65.54
936.76	-61.44
937.17	-133.12
937.57	251.90
937.97	161.79
938.38	190.46
938.78	98.30
939.19	243.71
939.59	14.34
940.00	94.21
940.40	233.47
940.80	180.22
941.21	43.01
941.61	124.93
942.02	141.31
942.42	86.01
942.82	397.31
943.23	428.03
943.63	339.96
944.04	6.14
944.44	155.65
944.84	116.73
945.25	210.94
945.65	358.39
946.05	45.06
946.46	45.06
946.86	286.72
947.26	-1366.00
947.67	-30.72
948.07	395.26
948.48	215.04
948.88	12.29
949.28	-83.97
949.69	98.30
950.09	124.93
950.49	151.55
950.90	36.86
951.30	288.76
951.70	219.13
952.11	-83.97
952.51	-38.91
952.91	219.13
953.32	180.22
953.72	114.69
954.12	253.95
954.53	180.22
954.93	36.86
955.33	120.83
955.74	206.84
956.14	188.41
956.54	-16.38
956.94	157.69
957.35	149.50
957.75	28.67
958.15	276.48
958.56	16.38
958.96	57.34
959.36	116.73
959.76	274.43
960.17	344.06
960.57	126.97
960.97	186.37
961.38	163.84
961.78	-6.14
962.18	665.59
962.58	325.63
962.99	-30.72
963.39	4.10
963.79	81.92
964.19	323.58
964.60	135.17
965.00	32.77
965.40	38.91
965.80	219.13
966.21	124.93
966.61	241.66
967.01	202.75
967.41	188.41
967.81	14.34
968.22	241.66
968.62	102.40
969.02	110.59
969.42	235.52
969.83	131.07
970.23	149.50
970.63	-67.58
971.03	153.60
971.43	147.45
971.84	126.97
972.24	219.13
972.64	321.53
973.04	210.94
973.44	280.57
973.85	241.66
974.25	38.91
974.65	432.12
975.05	204.80
975.45	483.32
975.85	159.74
976.26	176.13
976.66	176.13
977.06	227.32
977.46	32.77
977.86	215.04
978.26	346.11
978.67	303.10
979.07	372.73
979.47	161.79
979.87	43.01
980.27	299.00
980.67	-14.34
981.07	176.13
981.48	223.23
981.88	503.80
982.28	370.68
982.68	182.27
983.08	192.51
983.48	305.15
983.88	327.68
984.29	210.94
984.69	176.13
985.09	63.49
985.49	247.80
985.89	161.79
986.29	147.45
986.69	333.82
987.09	180.22
987.49	296.96
987.89	278.52
988.30	92.16
988.70	356.35
989.10	352.25
989.50	270.33
989.90	370.68
990.30	110.59
990.70	301.05
991.10	139.26
991.50	210.94
991.90	362.49
992.30	167.93
992.70	266.24
993.10	32.77
993.50	251.90
993.91	260.09
994.31	296.96
994.71	333.82
995.11	315.39
995.51	448.51
995.91	370.68
996.31	382.97
996.71	446.46
997.11	139.26
997.51	565.24
997.91	366.59
998.31	184.32
998.71	374.78
999.11	473.08
999.51	325.63
999.91	366.59
1000.31	249.85
1000.71	221.18
1001.11	212.99
1001.51	278.52
1001.91	511.99
1002.31	440.31
1002.71	487.42
1003.11	354.30
1003.51	321.53
1003.91	157.69
1004.31	321.53
1004.71	219.13
1005.11	464.89
1005.51	495.61
1005.91	325.63
1006.31	243.71
1006.71	356.35
1007.11	346.11
1007.51	317.44
1007.91	290.81
1008.31	460.79
1008.71	514.04
1009.11	225.28
1009.51	604.15
1009.91	440.31
1010.30	403.45
1010.70	434.17
1011.10	315.39
1011.50	385.02
1011.90	301.05
1012.30	231.42
1012.70	262.14
1013.10	528.38
1013.50	294.91
1013.90	176.13
1014.30	339.96
1014.70	307.20
1015.10	368.63
1015.50	342.01
1015.89	581.62
1016.29	385.02
1016.69	325.63
1017.09	591.86
1017.49	327.67
1017.89	296.96
1018.29	354.30
1018.69	284.67
1019.09	184.32
1019.48	176.13
1019.88	309.24
1020.28	251.90
1020.68	321.53
1021.08	403.45
1021.48	243.71
1021.88	530.42
1022.28	348.15
1022.67	198.65
1023.07	272.38
1023.47	272.38
1023.87	440.31
1024.27	301.05
1024.67	532.47
1025.07	452.60
1025.46	434.17
1025.86	159.74
1026.26	505.85
1026.66	215.04
1027.06	335.87
1027.46	380.92
1027.85	503.80
1028.25	376.83
1028.65	534.52
1029.05	471.03
1029.45	284.67
1029.85	350.20
1030.24	483.32
1030.64	528.38
1031.04	391.16
1031.44	323.58
1031.84	665.59
1032.23	536.57
1032.63	368.63
1033.03	663.54
1033.43	264.19
1033.83	458.74
1034.22	479.22
1034.62	772.08
1035.02	542.71
1035.42	620.53
1035.81	511.99
1036.21	370.68
1036.61	645.11
1037.01	477.18
1037.41	466.94
1037.80	419.83
1038.20	688.12
1038.60	458.75
1039.00	511.99
1039.39	868.34
1039.79	393.21
1040.19	608.25
1040.59	649.21
1040.98	440.31
1041.38	409.59
1041.78	520.18
1042.17	354.30
1042.57	296.96
1042.97	657.40
1043.37	342.01
1043.76	544.76
1044.16	352.25
1044.56	552.95
1044.96	483.32
1045.35	395.26
1045.75	393.21
1046.15	747.51
1046.54	632.82
1046.94	681.97
1047.34	286.72
1047.73	487.42
1048.13	561.14
1048.53	653.30
1048.93	366.59
1049.32	567.29
1049.72	458.75
1050.12	602.10
1050.51	471.03
1050.91	464.89
1051.31	204.80
1051.70	487.42
1052.10	583.67
1052.50	550.90
1052.89	460.79
1053.29	352.25
1053.69	376.83
1054.08	372.73
1054.48	567.29
1054.87	511.99
1055.27	487.42
1055.67	495.61
1056.06	585.72
1056.46	542.71
1056.86	477.18
1057.25	735.22
1057.65	522.23
1058.05	708.60
1058.44	536.57
1058.84	720.89
1059.23	755.70
1059.63	471.03
1060.03	430.07
1060.42	419.83
1060.82	413.69
1061.21	542.71
1061.61	593.91
1062.01	552.95
1062.40	518.14
1062.80	610.29
1063.19	645.11
1063.59	446.46
1063.99	327.68
1064.38	428.03
1064.78	491.51
1065.17	559.10
1065.57	792.56
1065.97	440.31
1066.36	626.68
1066.76	477.18
1067.15	692.21
1067.55	790.52
1067.94	395.26
1068.34	792.56
1068.73	503.80
1069.13	432.12
1069.53	602.10
1069.92	724.98
1070.32	716.79
1070.71	370.68
1071.11	763.89
1071.50	604.15
1071.90	598.01
1072.29	622.58
1072.69	532.47
1073.08	514.04
1073.48	557.05
1073.87	524.28
1074.27	690.17
1074.66	376.83
1075.06	677.88
1075.45	696.31
1075.85	749.56
1076.24	536.57
1076.64	710.65
1077.03	524.28
1077.43	669.69
1077.82	481.27
1078.22	796.66
1078.61	561.14
1079.01	432.12
1079.40	673.78
1079.80	630.77
1080.19	620.53
1080.59	628.73
1080.98	716.79
1081.38	468.98
1081.77	585.72
1082.17	432.12
1082.56	636.92
1082.96	536.57
1083.35	794.61
1083.75	491.51
1084.14	585.72
1084.53	514.04
1084.93	503.80
1085.32	544.76
1085.72	552.95
1086.11	679.93
1086.51	804.85
1086.90	593.91
1087.30	659.45
1087.69	708.60
1088.08	466.94
1088.48	593.91
1088.87	614.39
1089.27	520.18
1089.66	722.93
1090.05	630.77
1090.45	481.27
1090.84	710.65
1091.24	536.57
1091.63	667.64
1092.02	579.58
1092.42	636.92
1092.81	735.22
1093.21	649.21
1093.60	636.92
1093.99	804.85
1094.39	849.91
1094.78	684.02
1095.18	718.84
1095.57	688.12
1095.96	561.14
1096.36	704.50
1096.75	727.03
1097.14	612.34
1097.54	628.73
1097.93	477.18
1098.32	573.43
1098.72	374.78
1099.11	542.71
1099.50	587.77
1099.90	634.87
1100.29	129.02
1100.69	669.69
1101.08	778.23
1101.47	729.08
1101.87	757.75
1102.26	571.38
1102.65	602.10
1103.04	542.71
1103.44	608.25
1103.83	503.80
1104.22	792.56
1104.62	671.73
1105.01	692.21
1105.40	526.33
1105.80	669.69
1106.19	380.92
1106.58	630.77
1106.98	698.36
1107.37	511.99
1107.76	720.89
1108.15	606.20
1108.55	698.36
1108.94	643.06
1109.33	608.25
1109.73	649.21
1110.12	-174.08
1110.51	724.98
1110.90	700.41
1111.30	405.50
1111.69	612.34
1112.08	612.34
1112.47	1177.58
1112.87	485.37
1113.26	552.95
1113.65	786.42
1114.04	581.62
1114.44	632.82
1114.83	585.72
1115.22	757.75
1115.61	712.69
1116.01	745.46
1116.40	622.58
1116.79	608.25
1117.18	901.11
1117.58	839.67
1117.97	647.16
1118.36	561.14
1118.75	841.72
1119.14	643.06
1119.54	665.59
1119.93	651.25
1120.32	598.01
1120.71	909.30
1121.10	692.21
1121.50	837.62
1121.89	796.66
1122.28	604.15
1122.67	745.46
1123.06	587.77
1123.46	874.48
1123.85	704.50
1124.24	733.17
1124.63	897.01
1125.02	753.65
1125.41	1153.01
1125.81	542.71
1126.20	845.81
1126.59	622.58
1126.98	712.69
1127.37	622.58
1127.76	862.19
1128.16	751.60
1128.55	614.39
1128.94	858.10
1129.33	921.59
1129.72	700.41
1130.11	851.95
1130.50	-397.31
1130.90	765.94
1131.29	835.57
1131.68	964.59
1132.07	878.58
1132.46	1085.42
1132.85	700.41
1133.24	862.19
1133.63	991.22
1134.03	817.14
1134.42	823.28
1134.81	854.00
1135.20	905.20
1135.59	972.79
1135.98	794.61
1136.37	888.82
1136.76	909.30
1137.15	995.31
1137.54	1183.73
1137.94	747.51
1138.33	933.87
1138.72	757.75
1139.11	964.59
1139.50	976.88
1139.89	950.26
1140.28	735.22
1140.67	1007.60
1141.06	1019.89
1141.45	1079.28
1141.84	790.52
1142.23	983.02
1142.62	927.73
1143.01	946.16
1143.40	845.81
1143.80	929.78
1144.19	837.62
1144.58	958.45
1144.97	993.26
1145.36	929.78
1145.75	684.02
1146.14	851.95
1146.53	860.15
1146.92	892.91
1147.31	1044.46
1147.70	878.58
1148.09	970.74
1148.48	942.07
1148.87	1017.84
1149.26	890.87
1149.65	1097.71
1150.04	1134.57
1150.43	880.63
1150.82	1017.84
1151.21	882.67
1151.60	894.96
1151.99	1101.81
1152.38	1097.71
1152.77	1128.43
1153.16	948.21
1153.55	-3143.63
1153.94	940.02
1154.33	624.63
1154.72	1003.50
1155.11	1005.55
1155.50	864.24
1155.89	1400.81
1156.28	1013.74
1156.67	870.39
1157.06	1150.96
1157.44	1122.29
1157.83	985.07
1158.22	1005.55
1158.61	1273.84
1159.00	1126.38
1159.39	997.36
1159.78	1105.90
1160.17	1073.14
1160.56	1052.66
1160.95	1073.14
1161.34	1058.80
1161.73	1144.81
1162.12	1200.11
1162.51	1144.81
1162.90	894.96
1163.28	1146.86
1163.67	1066.99
1164.06	1034.22
1164.45	1136.62
1164.84	1040.37
1165.23	1105.90
1165.62	1218.54
1166.01	1284.08
1166.40	1083.38
1166.79	1001.46
1167.17	1062.90
1167.56	1044.46
1167.95	944.11
1168.34	933.87
1168.73	1146.86
1169.12	1390.57
1169.51	1066.99
1169.90	983.02
1170.28	1202.16
1170.67	1124.33
1171.06	1247.21
1171.45	1404.91
1171.84	1179.63
1172.23	1003.50
1172.62	1247.21
1173.00	978.93
1173.39	1214.45
1173.78	1001.46
1174.17	1386.47
1174.56	1243.12
1174.95	1200.11
1175.33	1456.11
1175.72	1103.86
1176.11	993.26
1176.50	1165.29
1176.89	1116.14
1177.28	1181.68
1177.66	1191.92
1178.05	923.63
1178.44	1134.57
1178.83	872.43
1179.22	1204.21
1179.60	1173.49
1179.99	1112.05
1180.38	1028.08
1180.77	899.06
1181.16	1155.05
1181.54	905.20
1181.93	1001.46
1182.32	999.41
1182.71	1196.01
1183.09	1097.71
1183.48	1034.22
1183.87	1292.27
1184.26	1210.35
1184.65	1177.58
1185.03	1259.50
1185.42	1310.70
1185.81	1290.22
1186.20	1071.09
1186.58	1204.21
1186.97	1218.54
1187.36	1011.70
1187.75	1120.24
1188.13	1234.93
1188.52	1366.00
1188.91	1263.60
1189.30	1226.73
1189.68	1163.25
1190.07	1202.16
1190.46	1271.79
1190.84	1198.06
1191.23	1337.32
1191.62	1204.21
1192.01	1144.81
1192.39	1009.65
1192.78	1075.18
1193.17	1308.65
1193.55	1214.45
1193.94	1218.54
1194.33	1097.71
1194.72	1388.52
1195.10	1339.37
1195.49	2443.23
1195.88	1091.57
1196.26	1288.17
1196.65	1277.93
1197.04	1267.69
1197.42	1183.73
1197.81	1419.24
1198.20	1380.33
1198.58	1046.51
1198.97	1419.24
1199.36	1290.22
1199.74	1322.99
1200.13	1056.75
1200.52	1355.76
1200.90	1452.01
1201.29	1427.43
1201.68	1341.42
1202.06	1288.17
1202.45	720.89
1202.84	1161.20
1203.22	1066.99
1203.61	1435.63
1203.99	1208.30
1204.38	1398.76
1204.77	1564.65
1205.15	1368.04
1205.54	1468.39
1205.93	1505.26
1206.31	1540.07
1206.70	1400.81
1207.08	1333.23
1207.47	1363.95
1207.86	1347.56
1208.24	1386.47
1208.63	1419.24
1209.01	1294.32
1209.40	1378.28
1209.79	1273.84
1210.17	1527.78
1210.56	1488.87
1210.94	1527.78
1211.33	1333.23
1211.72	1304.56
1212.10	1314.80
1212.49	1331.18
1212.87	1402.86
1213.26	1734.63
1213.64	1349.61
1214.03	1259.50
1214.42	1583.08
1214.80	1452.01
1215.19	1210.35
1215.57	1556.46
1215.96	1691.62
1216.34	1441.77
1216.73	1337.32
1217.11	1343.47
1217.50	1118.19
1217.89	1460.20
1218.27	1163.25
1218.66	1591.27
1219.04	1511.40
1219.43	1417.19
1219.81	1425.39
1220.20	1423.34
1220.58	1366.00
1220.97	1419.24
1221.35	1458.15
1221.74	1593.32
1222.12	1376.23
1222.51	1300.46
1222.89	1212.40
1223.28	1361.90
1223.66	1288.17
1224.05	1329.13
1224.43	1564.65
1224.82	1560.55
1225.20	1409.00
1225.59	1306.60
1225.97	1294.32
1226.36	1568.74
1226.74	1310.70
1227.13	1282.03
1227.51	1445.87
1227.90	1972.19
1228.28	1382.38
1228.66	1468.39
1229.05	1417.19
1229.43	1363.95
1229.82	1325.04
1230.20	1558.50
1230.59	1695.72
1230.97	1277.93
1231.36	1062.90
1231.74	1452.01
1232.13	1378.28
1232.51	1394.67
1232.89	1495.02
1233.28	1404.91
1233.66	1230.83
1234.05	1363.95
1234.43	1341.42
1234.82	1157.10
1235.20	1581.03
1235.58	1441.77
1235.97	1200.11
1236.35	1441.77
1236.74	1589.22
1237.12	1392.62
1237.50	1540.07
1237.89	1372.14
1238.27	1234.93
1238.66	1482.73
1239.04	1527.78
1239.42	1384.43
1239.81	1591.27
1240.19	1363.95
1240.58	1638.38
1240.96	1755.11
1241.34	1400.81
1241.73	1406.95
1242.11	1368.04
1242.49	1314.80
1242.88	1282.03
1243.26	1294.32
1243.64	1284.08
1244.03	1366.00
1244.41	1253.36
1244.80	1585.13
1245.18	1306.60
1245.56	1181.68
1245.95	1406.95
1246.33	1419.24
1246.71	1343.47
1247.10	1335.28
1247.48	1568.74
1247.86	1380.33
1248.25	892.91
1248.63	1447.91
1249.01	1318.89
1249.40	1286.12
1249.78	1429.48
1250.16	1421.29
1250.55	1304.56
1250.93	1390.57
1251.31	1388.52
1251.69	1236.97
1252.08	1331.18
1252.46	909.30
1252.84	1341.42
1253.23	1511.40
1253.61	1423.34
1253.99	1236.97
1254.37	1329.13
1254.76	1341.42
1255.14	1183.73
1255.52	1322.99
1255.91	1314.80
1256.29	1333.23
1256.67	1304.56
1257.05	1306.60
1257.44	1224.69
1257.82	1310.70
1258.20	1263.60
1258.58	1300.46
1258.97	1347.56
1259.35	1464.30
1259.73	1468.39
1260.11	1345.52
1260.50	1191.92
1260.88	1200.11
1261.26	1249.26
1261.64	1196.01
1262.03	1593.32
1262.41	1259.50
1262.79	1267.69
1263.17	1388.52
1263.56	1613.80
1263.94	1136.62
1264.32	1224.69
1264.70	1288.17
1265.08	942.07
1265.47	1298.41
1265.85	1257.45
1266.23	1226.73
1266.61	1187.82
1266.99	1161.20
1267.38	1040.37
1267.76	1349.61
1268.14	1302.51
1268.52	1202.16
1268.90	1288.17
1269.29	1296.36
1269.67	1347.56
1270.05	1234.93
1270.43	993.26
1270.81	1402.86
1271.19	1339.37
1271.58	862.19
1271.96	1255.40
1272.34	1296.36
1272.72	1304.56
1273.10	1206.25
1273.48	1136.62
1273.86	1161.20
1274.25	1355.76
1274.63	1128.43
1275.01	1314.80
1275.39	1366.00
1275.77	1189.87
1276.15	1368.04
1276.53	1011.70
1276.92	1198.06
1277.30	1050.61
1277.68	1196.01
1278.06	1372.14
1278.44	1095.66
1278.82	1294.32
1279.20	1153.01
1279.58	1118.19
1279.97	1140.72
1280.35	1306.60
1280.73	1128.43
1281.11	1187.82
1281.49	1105.90
1281.87	1329.13
1282.25	1310.70
1282.63	1087.47
1283.01	1093.62
1283.39	1005.55
1283.77	999.41
1284.16	1161.20
1284.54	899.06
1284.92	1269.74
1285.30	1261.55
1285.68	1083.38
1286.06	1273.84
1286.44	1320.94
1286.82	1325.04
1287.20	1282.03
1287.58	1208.30
1287.96	1058.80
1288.34	1087.47
1288.72	1132.53
1289.10	1316.84
1289.48	1087.47
1289.86	1064.94
1290.24	1261.55
1290.62	1204.21
1291.00	1058.80
1291.38	1056.75
1291.77	1306.60
1292.15	1066.99
1292.53	1116.14
1292.91	1306.60
1293.29	1220.59
1293.67	1073.14
1294.05	966.64
1294.43	944.11
1294.81	1081.33
1295.19	1177.58
1295.57	1204.21
1295.95	1368.04
1296.33	1155.05
1296.71	1320.94
1297.09	600.05
1297.47	1085.42
1297.85	1095.66
1298.23	1005.55
1298.60	1060.85
1298.98	1452.01
1299.36	1001.46
1299.74	1003.50
1300.12	1167.34
1300.50	954.35
1300.88	1183.73
1301.26	1079.28
1301.64	1134.57
1302.02	1146.86
1302.40	1128.43
1302.78	851.95
1303.16	1175.53
1303.54	905.20
1303.92	1054.70
1304.30	962.55
1304.68	1005.55
1305.06	1406.95
1305.44	1089.52
1305.82	1198.06
1306.19	950.26
1306.57	1222.64
1306.95	1046.51
1307.33	1257.45
1307.71	1359.85
1308.09	1128.43
1308.47	899.06
1308.85	1103.86
1309.23	1112.05
1309.61	1273.84
1309.99	800.76
1310.36	1279.98
1310.74	1132.53
1311.12	1316.84
1311.50	1146.86
1311.88	1013.74
1312.26	1032.18
1312.64	1153.01
1313.02	989.17
1313.39	1118.19
1313.77	1189.87
1314.15	1165.29
1314.53	1122.29
1314.91	1243.12
1315.29	962.55
1315.67	1193.97
1316.05	1118.19
1316.42	1058.80
1316.80	1040.37
1317.18	1103.86
1317.56	1089.52
1317.94	1134.57
1318.32	1071.09
1318.69	978.93
1319.07	997.36
1319.45	1050.61
1319.83	937.97
1320.21	1075.18
1320.59	669.69
1320.96	925.68
1321.34	1089.52
1321.72	1241.07
1322.10	1116.14
1322.48	829.43
1322.85	1011.70
1323.23	931.83
1323.61	1126.38
1323.99	925.68
1324.37	1019.89
1324.74	1019.89
1325.12	884.72
1325.50	1253.36
1325.88	1251.31
1326.26	1007.60
1326.63	1128.43
1327.01	993.26
1327.39	1075.18
1327.77	1163.25
1328.14	958.45
1328.52	1275.88
1328.90	1120.24
1329.28	1079.28
1329.66	917.49
1330.03	1019.89
1330.41	1060.85
1330.79	997.36
1331.17	878.58
1331.54	1046.51
1331.92	1089.52
1332.30	1138.67
1332.67	1060.85
1333.05	1060.85
1333.43	1099.76
1333.81	1087.47
1334.18	1073.14
1334.56	897.01
1334.94	1021.94
1335.32	952.31
1335.69	858.10
1336.07	974.83
1336.45	1277.93
1336.82	995.31
1337.20	937.97
1337.58	1007.60
1337.96	1089.52
1338.33	1251.31
1338.71	915.44
1339.09	1036.27
1339.46	991.22
1339.84	1062.90
1340.22	872.43
1340.59	989.17
1340.97	1175.53
1341.35	1097.71
1341.72	1095.66
1342.10	1073.14
1342.48	1042.42
1342.85	1095.66
1343.23	860.15
1343.61	1036.27
1343.98	1058.80
1344.36	811.00
1344.74	921.59
1345.11	935.92
1345.49	1120.24
1345.87	1142.77
1346.24	948.21
1346.62	997.36
1347.00	808.95
1347.37	1009.65
1347.75	1138.67
1348.12	989.17
1348.50	892.91
1348.88	829.43
1349.25	862.19
1349.63	858.10
1350.00	1220.59
1350.38	1058.80
1350.76	935.92
1351.13	763.89
1351.51	1015.79
1351.89	1056.75
1352.26	1112.05
1352.64	1140.72
1353.01	1198.06
1353.39	1034.22
1353.76	1019.89
1354.14	1097.71
1354.52	802.80
1354.89	1036.27
1355.27	1042.42
1355.64	851.95
1356.02	817.14
1356.40	997.36
1356.77	948.21
1357.15	919.54
1357.52	798.71
1357.90	1066.99
1358.27	993.26
1358.65	1071.09
1359.02	983.02
1359.40	958.45
1359.78	1052.66
1360.15	1040.37
1360.53	1062.90
1360.90	995.31
1361.28	1046.51
1361.65	1028.08
1362.03	1048.56
1362.40	999.41
1362.78	1097.71
1363.15	1038.32
1363.53	1243.12
1363.90	907.25
1364.28	929.78
1364.65	1163.25
1365.03	1660.90
1365.40	1124.33
1365.78	1136.62
1366.15	1042.42
1366.53	892.91
1366.90	903.15
1367.28	1015.79
1367.65	935.92
1368.03	868.34
1368.40	1083.38
1368.78	925.68
1369.15	794.61
1369.53	940.02
1369.90	1040.37
1370.28	944.11
1370.65	980.98
1371.03	909.30
1371.40	860.15
1371.78	839.67
1372.15	835.57
1372.53	1130.48
1372.90	796.66
1373.27	1028.08
1373.65	829.43
1374.02	849.91
1374.40	1159.15
1374.77	1081.33
1375.15	841.72
1375.52	1097.71
1375.89	817.14
1376.27	1062.90
1376.64	968.69
1377.02	960.50
1377.39	894.96
1377.77	876.53
1378.14	921.59
1378.51	983.03
1378.89	1114.09
1379.26	1040.37
1379.64	1005.55
1380.01	1120.24
1380.38	1023.98
1380.76	907.25
1381.13	983.02
1381.51	854.00
1381.88	1069.04
1382.25	774.13
1382.63	1019.89
1383.00	1007.60
1383.38	890.87
1383.75	882.67
1384.12	839.67
1384.50	858.10
1384.87	1021.94
1385.24	1079.28
1385.62	942.07
1385.99	872.43
1386.36	1046.51
1386.74	894.96
1387.11	890.87
1387.49	1054.70
1387.86	1077.23
1388.23	1218.54
1388.61	1003.50
1388.98	876.53
1389.35	862.19
1389.73	919.54
1390.10	796.66
1390.47	819.19
1390.85	724.98
1391.22	796.66
1391.59	991.22
1391.96	989.17
1392.34	974.83
1392.71	1048.56
1393.08	1042.42
1393.46	1073.14
1393.83	1021.94
1394.20	878.58
1394.58	866.29
1394.95	747.51
1395.32	794.61
1395.70	825.33
1396.07	356.35
1396.44	1046.51
1396.81	958.45
1397.19	780.28
1397.56	819.19
1397.93	1007.60
1398.30	1034.22
1398.68	993.26
1399.05	878.58
1399.42	1026.03
1399.80	819.19
1400.17	858.10
1400.54	872.43
1400.91	886.77
1401.29	993.26
1401.66	880.63
1402.03	935.92
1402.40	1079.28
1402.78	704.50
1403.15	915.44
1403.52	872.43
1403.89	948.21
1404.26	931.83
1404.64	1001.46
1405.01	897.01
1405.38	983.03
1405.75	792.56
1406.13	833.52
1406.50	999.41
1406.87	847.86
1407.24	894.96
1407.61	872.43
1407.99	745.46
1408.36	784.37
1408.73	811.00
1409.10	792.56
1409.47	899.06
1409.85	831.48
1410.22	659.45
1410.59	811.00
1410.96	1177.58
1411.33	788.47
1411.70	931.83
1412.08	1028.08
1412.45	739.32
1412.82	966.64
1413.19	786.42
1413.56	1011.70
1413.93	942.07
1414.31	903.15
1414.68	765.94
1415.05	696.31
1415.42	927.73
1415.79	770.04
1416.16	1155.05
1416.54	821.24
1416.91	1169.39
1417.28	921.59
1417.65	999.41
1418.02	835.57
1418.39	815.09
1418.76	878.58
1419.13	813.04
1419.51	1005.55
1419.88	798.71
1420.25	817.14
1420.62	950.26
1420.99	940.02
1421.36	856.05
1421.73	821.24
1422.10	727.03
1422.47	737.27
1422.85	876.53
1423.22	940.02
1423.59	786.42
1423.96	882.67
1424.33	686.07
1424.70	778.23
1425.07	753.65
1425.44	808.95
1425.81	874.48
1426.18	778.23
1426.55	759.80
1426.92	1054.70
1427.29	841.72
1427.67	798.71
1428.04	694.26
1428.41	841.72
1428.78	802.80
1429.15	948.21
1429.52	825.33
1429.89	911.35
1430.26	833.52
1430.63	933.87
1431.00	1105.90
1431.37	800.76
1431.74	704.50
1432.11	700.41
1432.48	1148.91
1432.85	647.16
1433.22	860.15
1433.59	600.05
1433.96	851.95
1434.33	833.52
1434.70	817.14
1435.07	841.72
1435.44	870.39
1435.81	706.55
1436.18	870.39
1436.55	796.66
1436.92	743.41
1437.29	829.43
1437.66	655.35
1438.03	884.72
1438.40	643.06
1438.77	993.26
1439.14	841.72
1439.51	704.50
1439.88	565.24
1440.25	757.75
1440.62	944.11
1440.99	796.66
1441.36	591.86
1441.73	720.89
1442.10	964.59
1442.47	716.79
1442.84	923.63
1443.21	948.21
1443.58	804.85
1443.95	991.22
1444.32	739.32
1444.68	847.86
1445.05	688.12
1445.42	600.05
1445.79	921.59
1446.16	894.96
1446.53	888.82
1446.90	587.77
1447.27	788.47
1447.64	813.04
1448.01	753.65
1448.38	679.93
1448.75	587.77
1449.12	708.60
1449.48	595.96
1449.85	788.47
1450.22	641.01
1450.59	702.45
1450.96	747.51
1451.33	704.50
1451.70	720.89
1452.07	665.59
1452.44	796.66
1452.80	751.60
1453.17	567.29
1453.54	722.93
1453.91	929.78
1454.28	667.64
1454.65	704.50
1455.02	571.38
1455.39	573.43
1455.75	620.53
1456.12	747.51
1456.49	563.19
1456.86	649.21
1457.23	456.70
1457.60	745.46
1457.96	583.67
1458.33	557.05
1458.70	606.20
1459.07	634.87
1459.44	538.62
1459.81	524.28
1460.17	415.74
1460.54	706.55
1460.91	733.17
1461.28	626.68
1461.65	700.41
1462.02	514.04
1462.38	643.06
1462.75	428.03
1463.12	354.30
1463.49	649.21
1463.86	352.25
1464.22	757.75
1464.59	776.18
1464.96	327.68
1465.33	561.14
1465.70	630.77
1466.06	690.17
1466.43	552.95
1466.80	677.88
1467.17	649.21
1467.53	483.32
1467.90	698.36
1468.27	520.18
1468.64	581.62
1469.01	784.37
1469.37	407.55
1469.74	471.03
1470.11	552.95
1470.48	628.73
1470.84	524.28
1471.21	647.16
1471.58	667.64
1471.95	538.62
1472.31	1089.52
1472.68	423.93
1473.05	659.45
1473.41	505.85
1473.78	540.66
1474.15	511.99
1474.52	540.66
1474.88	620.53
1475.25	536.57
1475.62	854.00
1475.99	559.10
1476.35	382.97
1476.72	602.10
1477.09	626.68
1477.45	659.45
1477.82	458.75
1478.19	534.52
1478.55	604.15
1478.92	661.49
1479.29	591.86
1479.66	505.85
1480.02	661.49
1480.39	589.81
1480.76	268.28
1481.12	280.57
1481.49	350.20
1481.86	405.50
1482.22	391.16
1482.59	643.06
1482.96	815.09
1483.32	331.77
1483.69	448.51
1484.06	571.38
1484.42	368.63
1484.79	501.75
1485.15	483.32
1485.52	612.34
1485.89	573.43
1486.25	577.53
1486.62	464.89
1486.99	649.21
1487.35	442.36
1487.72	514.04
1488.09	544.76
1488.45	528.38
1488.82	559.10
1489.18	710.65
1489.55	415.74
1489.92	647.16
1490.28	477.18
1490.65	337.91
1491.01	677.88
1491.38	563.19
1491.75	593.91
1492.11	370.68
1492.48	477.18
1492.84	624.63
1493.21	755.70
1493.58	563.19
1493.94	849.91
1494.31	667.64
1494.67	511.99
1495.04	356.35
1495.40	528.38
1495.77	501.75
1496.14	546.81
1496.50	405.50
1496.87	692.21
1497.23	499.70
1497.60	524.28
1497.96	436.22
1498.33	401.40
1498.70	331.77
1499.06	428.03
1499.43	411.64
1499.79	-473.08
1500.16	493.56
1500.52	522.23
1500.89	368.63
1501.25	274.43
1501.62	327.67
1501.98	616.44
1502.35	329.72
1502.71	511.99
1503.08	442.36
1503.44	587.77
1503.81	487.42
1504.17	516.09
1504.54	182.27
1504.90	382.97
1505.27	368.63
1505.63	325.63
1506.00	428.03
1506.36	456.70
1506.73	505.85
1507.09	565.24
1507.46	497.66
1507.82	485.37
1508.19	395.26
1508.55	567.29
1508.92	428.03
1509.28	403.45
1509.65	509.94
1510.01	282.62
1510.38	528.38
1510.74	352.25
1511.11	243.71
1511.47	395.26
1511.83	450.55
1512.20	188.41
1512.56	323.58
1512.93	659.45
1513.29	495.61
1513.66	401.40
1514.02	235.52
1514.39	382.97
1514.75	276.48
1515.11	563.19
1515.48	374.78
1515.84	172.03
1516.21	315.39
1516.57	317.44
1516.94	323.58
1517.30	460.79
1517.66	278.52
1518.03	57.34
1518.39	333.82
1518.76	358.39
1519.12	233.47
1519.48	337.91
1519.85	526.33
1520.21	403.45
1520.58	356.35
1520.94	346.11
1521.30	235.52
1521.67	245.76
1522.03	196.60
1522.39	274.43
1522.76	411.64
1523.12	378.87
1523.49	176.13
1523.85	262.14
1524.21	534.52
1524.58	292.86
1524.94	401.40
1525.30	188.41
1525.67	176.13
1526.03	399.35
1526.39	344.06
1526.76	231.42
1527.12	231.42
1527.48	231.42
1527.85	196.60
1528.21	174.08
1528.57	223.23
1528.94	256.00
1529.30	282.62
1529.66	313.34
1530.03	67.58
1530.39	45.06
1530.75	374.78
1531.12	229.37
1531.48	284.67
1531.84	-2.05
1532.21	96.25
1532.57	231.42
1532.93	139.26
1533.29	296.96
1533.66	235.52
1534.02	-2533.34
1534.38	114.69
1534.75	274.43
1535.11	186.37
1535.47	163.84
1535.83	309.24
1536.20	266.24
1536.56	188.41
1536.92	401.40
1537.28	110.59
1537.65	288.76
1538.01	311.29
1538.37	387.07
1538.74	129.02
1539.10	176.13
1539.46	901.11
1539.82	155.65
1540.19	180.22
1540.55	200.70
1540.91	212.99
1541.27	204.80
1541.63	270.33
1542.00	161.79
1542.36	233.47
1542.72	286.72
1543.08	301.05
1543.45	176.13
1543.81	237.56
1544.17	-8.19
1544.53	215.04
1544.89	180.22
1545.26	108.54
1545.62	247.80
1545.98	153.60
1546.34	104.45
1546.70	55.30
1547.07	335.87
1547.43	137.21
1547.79	251.90
1548.15	352.25
1548.51	251.90
1548.88	49.15
1549.24	149.50
1549.60	237.56
1549.96	157.69
1550.32	260.09
1550.68	133.12
1551.05	272.38
1551.41	241.66
1551.77	198.65
1552.13	374.78
1552.49	167.93
1552.85	114.69
1553.22	284.67
1553.58	26.62
1553.94	294.91
1554.30	102.40
1554.66	235.52
1555.02	18.43
1555.38	251.90
1555.75	258.04
1556.11	346.11
1556.47	192.51
1556.83	24.58
1557.19	344.06
1557.55	131.07
1557.91	12.29
1558.27	229.37
1558.63	114.69
1559.00	98.30
1559.36	194.56
1559.72	217.08
1560.08	241.66
1560.44	215.04
1560.80	276.48
1561.16	317.44
1561.52	-124.93
1561.88	-16.38
1562.24	243.71
1562.60	376.83
1562.97	98.30
1563.33	-61.44
1563.69	196.61
1564.05	61.44
1564.41	133.12
1564.77	-45.06
1565.13	120.83
1565.49	38.91
1565.85	129.02
1566.21	55.30
1566.57	116.73
1566.93	137.21
1567.29	145.41
1567.65	331.77
1568.01	241.66
1568.37	116.73
1568.73	69.63
1569.09	165.89
1569.45	104.45
1569.82	212.99
1570.18	673.78
1570.54	-1165.29
1570.90	280.57
1571.26	210.94
1571.62	116.73
1571.98	188.41
1572.34	-10.24
1572.70	92.16
1573.06	40.96
1573.42	108.54
1573.78	-69.63
1574.14	268.28
1574.50	165.89
1574.86	102.40
1575.22	157.69
1575.58	77.82
1575.94	323.58
1576.30	262.14
1576.66	20.48
1577.01	344.06
1577.37	81.92
1577.73	-18.43
1578.09	256.00
1578.45	28.67
1578.81	51.20
1579.17	264.19
1579.53	206.84
1579.89	204.80
1580.25	169.98
1580.61	159.74
1580.97	0.00
1581.33	196.61
1581.69	180.22
1582.05	161.79
1582.41	-92.16
1582.77	98.30
1583.13	10.24
1583.49	-75.77
1583.84	256.00
1584.20	182.27
1584.56	149.50
1584.92	20.48
1585.28	256.00
1585.64	86.01
1586.00	348.15
1586.36	-36.86
1586.72	157.69
1587.08	157.69
1587.44	14.34
1587.79	155.65
1588.15	198.65
1588.51	-12.29
1588.87	108.54
1589.23	212.99
1589.59	104.45
1589.95	192.51
1590.31	118.78
1590.66	43.01
1591.02	57.34
1591.38	122.88
1591.74	268.28
1592.10	442.36
1592.46	98.30
1592.82	75.77
1593.18	-96.25
1593.53	-77.82
1593.89	190.46
1594.25	112.64
1594.61	143.36
1594.97	151.55
1595.33	155.65
1595.68	-161.79
1596.04	157.69
1596.40	79.87
1596.76	88.06
1597.12	-28.67
1597.48	49.15
1597.83	225.28
1598.19	-178.17
1598.55	49.15
1598.91	-8.19
1599.27	100.35
1599.62	-225.28
1599.98	79.87
1600.34	210.94
1600.70	92.16
1601.06	-120.83
1601.41	135.17
1601.77	-71.68
1602.13	186.37
1602.49	256.00
1602.85	-6.14
1603.20	196.60
1603.56	223.23
1603.92	-79.87
1604.28	40.96
1604.63	169.98
1604.99	552.95
1605.35	-92.16
1605.71	40.96
1606.06	26.62
1606.42	65.53
1606.78	75.77
1607.14	221.18
1607.49	165.89
1607.85	-174.08
1608.21	22.53
1608.57	145.41
1608.92	-110.59
1609.28	38.91
1609.64	43.01
1610.00	159.74
1610.35	141.31
1610.71	182.27
1611.07	65.53
1611.43	-147.45
1611.78	12.29
1612.14	116.73
1612.50	36.86
1612.85	198.65
1613.21	28.67
1613.57	-18.43
1613.92	-157.69
1614.28	145.41
1614.64	249.85
1615.00	67.58
1615.35	4.10
1615.71	-73.73
1616.07	53.25
1616.42	104.45
1616.78	139.26
1617.14	-47.10
1617.49	247.80
1617.85	247.80
1618.21	239.61
1618.56	260.09
1618.92	122.88
1619.28	92.16
1619.63	155.65
1619.99	-94.21
1620.35	327.67
1620.70	-59.39
1621.06	161.79
1621.42	57.34
1621.77	-47.10
1622.13	153.60
1622.48	-108.54
1622.84	86.01
1623.20	59.39
1623.55	200.70
1623.91	10.24
1624.27	94.21
1624.62	106.49
1624.98	8.19
1625.33	30.72
1625.69	-16.38
1626.05	215.04
1626.40	147.45
1626.76	299.00
1627.11	225.28
1627.47	-59.39
1627.83	-24.58
1628.18	-32.77
1628.54	-51.20
1628.89	172.03
1629.25	-141.31
1629.61	110.59
1629.96	96.25
1630.32	22.53
1630.67	94.21
1631.03	30.72
1631.38	372.73
1631.74	-40.96
1632.10	174.08
1632.45	22.53
1632.81	-804.85
1633.16	-71.68
1633.52	-282.62
1633.87	59.39
1634.23	38.91
1634.58	-53.25
1634.94	24.58
1635.30	96.25
1635.65	0.00
1636.01	116.73
1636.36	-155.65
1636.72	200.70
1637.07	133.12
1637.43	14.34
1637.78	-24.58
1638.14	71.68
1638.49	10.24
1638.85	139.26
1639.20	22.53
1639.56	114.69
1639.91	71.68
1640.27	-24.58
1640.62	18.43
1640.98	-92.16
1641.33	6.14
1641.69	-22.53
1642.04	-47.10
1642.40	-51.20
1642.75	61.44
1643.11	106.49
1643.46	-159.74
1643.82	-4.10
1644.17	165.89
1644.53	88.06
1644.88	2.05
1645.24	45.06
1645.59	-139.26
1645.94	206.84
1646.30	-196.60
1646.65	-124.93
1647.01	110.59
1647.36	94.21
1647.72	163.84
1648.07	-67.58
1648.43	-28.67
1648.78	-47.10
1649.14	-81.92
1649.49	92.16
1649.84	8.19
1650.20	-221.18
1650.55	223.23
1650.91	100.35
1651.26	184.32
1651.61	-81.92
1651.97	-266.24
1652.32	43.01
1652.68	-51.20
1653.03	63.49
1653.39	-2.05
1653.74	-116.73
1654.09	24.58
1654.45	-141.31
1654.80	-38.91
1655.16	219.13
1655.51	-104.45
1655.86	61.44
1656.22	61.44
1656.57	151.55
1656.92	260.09
1657.28	86.01
1657.63	34.82
1657.99	-342.01
1658.34	28.67
1658.69	100.35
1659.05	192.51
1659.40	8.19
1659.75	-49.15
1660.11	131.07
1660.46	36.86
1660.81	292.86
1661.17	4.10
1661.52	24.58
1661.87	24.58
1662.23	57.34
1662.58	-75.77
1662.93	-51.20
1663.29	180.22
1663.64	-194.56
1663.99	-485.37
1664.35	122.88
1664.70	137.21
1665.05	86.01
1665.41	-81.92
1665.76	79.87
1666.11	145.41
1666.47	135.17
1666.82	92.16
1667.17	14.34
1667.52	8.19
1667.88	204.80
1668.23	-262.14
1668.58	-124.93
1668.94	106.49
1669.29	45.06
1669.64	83.97
1670.00	90.11
1670.35	-94.21
1670.70	-32.77
1671.05	215.04
1671.41	-100.35
1671.76	59.39
1672.11	8.19
1672.46	-6.14
1672.82	-112.64
1673.17	165.89
1673.52	397.31
1673.87	116.73
1674.23	-6.14
1674.58	88.06
1674.93	51.20
1675.28	-227.32
1675.64	-100.35
1675.99	-92.16
1676.34	274.43
1676.69	-81.92
1677.05	-204.80
1677.40	139.26
1677.75	-63.49
1678.10	2.05
1678.45	12.29
1678.81	-2.05
1679.16	169.98
1679.51	176.13
1679.86	6.14
1680.21	16.38
1680.57	194.56
1680.92	116.73
1681.27	276.48
1681.62	90.11
1681.97	14.34
1682.33	57.34
1682.68	100.35
1683.03	212.99
1683.38	-75.77
1683.73	114.69
1684.08	172.03
1684.44	124.93
1684.79	-30.72
1685.14	272.38
1685.49	88.06
1685.84	-30.72
1686.19	26.62
1686.55	278.52
1686.90	51.20
1687.25	-98.30
1687.60	245.76
1687.95	-186.37
1688.30	12.29
1688.65	376.83
1689.01	284.67
1689.36	-155.65
1689.71	-57.34
1690.06	-145.41
1690.41	-12.29
1690.76	81.92
1691.11	-126.97
1691.46	63.49
1691.82	4.10
1692.17	10.24
1692.52	-8.19
1692.87	118.78
1693.22	-55.30
1693.57	-165.89
1693.92	86.01
1694.27	49.15
1694.62	176.13
1694.97	-100.35
1695.33	176.13
1695.68	88.06
1696.03	-129.02
1696.38	182.27
1696.73	108.54
1697.08	296.96
1697.43	-14.34
1697.78	-221.18
1698.13	-81.92
1698.48	20.48
1698.83	-47.10
1699.18	57.34
1699.53	59.39
1699.88	149.50
1700.24	-225.28
1700.59	-286.72
1700.94	303.10
1701.29	-133.12
1701.64	28.67
1701.99	-200.70
1702.34	112.64
1702.69	69.63
1703.04	61.44
1703.39	57.34
1703.74	198.65
1704.09	-137.21
1704.44	-212.99
1704.79	-79.87
1705.14	192.51
1705.49	69.63
1705.84	301.05
1706.19	-182.27
1706.54	-49.15
1706.89	116.73
1707.24	-137.21
1707.59	-79.87
1707.94	83.97
1708.29	-59.39
1708.64	124.93
1708.99	-43.01
1709.34	-47.10
1709.69	12.29
1710.04	180.22
1710.39	114.69
1710.74	182.27
1711.09	-67.58
1711.44	104.45
1711.79	-24.58
1712.14	22.53
1712.49	237.56
1712.84	2.05
1713.18	-247.80
1713.53	38.91
1713.88	43.01
1714.23	167.93
1714.58	194.56
1714.93	75.77
1715.28	-141.31
1715.63	143.36
1715.98	20.48
1716.33	-16.38
1716.68	120.83
1717.03	135.17
1717.38	112.64
1717.73	-57.34
1718.08	43.01
1718.42	2.05
1718.77	-12.29
1719.12	16.38
1719.47	106.49
1719.82	-2.05
1720.17	180.22
1720.52	-75.77
1720.87	-49.15
1721.22	-47.10
1721.57	387.07
1721.91	237.56
1722.26	194.56
1722.61	16.38
1722.96	-90.11
1723.31	141.31
1723.66	124.93
1724.01	53.25
1724.36	215.04
1724.70	169.98
1725.05	-49.15
1725.40	-18.43
1725.75	12.29
1726.10	114.69
1726.45	30.72
1726.80	-112.64
1727.14	126.97
1727.49	-6.14
1727.84	-16.38
1728.19	122.88
1728.54	133.12
1728.89	131.07
1729.23	-24.58
1729.58	249.85
1729.93	114.69
1730.28	-24.58
1730.63	-143.36
1730.97	227.32
1731.32	90.11
1731.67	-2.05
1732.02	4.10
1732.37	20.48
1732.72	22.53
1733.06	65.54
1733.41	178.17
1733.76	-106.49
1734.11	34.82
1734.46	-24.58
1734.80	194.56
1735.15	124.93
1735.50	348.15
1735.85	186.37
1736.19	14.34
1736.54	-38.91
>>>>>End Processed Spectral Data<<<<<
