SpectraSuite Data File
++++++++++++++++++++++++++++++++++++
Date: Tue Feb 05 15:04:53 EET 2019
User: demo
Dark Spectrum Present: Yes
Reference Spectrum Present: Yes
Number of Sampled Component Spectra: 1
Spectrometers: USB4H03366
Integration Time (usec): 20000000 (USB4H03366)
Spectra Averaged: 1 (USB4H03366)
Boxcar Smoothing: 0 (USB4H03366)
Correct for Electrical Dark: No (USB4H03366)
Strobe/Lamp Enabled: No (USB4H03366)
Correct for Detector Non-linearity: No (USB4H03366)
Correct for Stray Light: No (USB4H03366)
Number of Pixels in Processed Spectrum: 3648
>>>>>Begin Processed Spectral Data<<<<<
291.48	-4.10
291.93	-4.10
292.37	-4.10
292.82	-4.10
293.26	-28.67
293.70	-14.34
294.15	-32.77
294.59	45.06
295.04	-79.87
295.48	344.06
295.93	34.82
296.37	18.43
296.82	-28.67
297.26	133.12
297.71	212.99
298.15	159.74
298.59	155.65
299.04	260.09
299.48	-8.19
299.93	75.77
300.37	73.73
300.82	0.00
301.26	18.43
301.70	63.49
302.15	108.54
302.59	49.15
303.04	-28.67
303.48	45.06
303.92	73.73
304.37	20.48
304.81	67.58
305.26	237.56
305.70	77.82
306.14	231.42
306.59	20.48
307.03	294.91
307.47	176.13
307.92	-110.59
308.36	102.40
308.81	24.58
309.25	47.10
309.69	47.10
310.14	679.93
310.58	16.38
311.02	-30.72
311.47	348.15
311.91	38.91
312.36	0.00
312.80	-221.18
313.24	6.14
313.69	-161.79
314.13	8.19
314.57	120.83
315.02	-8.19
315.46	-45.06
315.90	129.02
316.35	-2.05
316.79	81.92
317.23	-30.72
317.68	210.94
318.12	53.25
318.56	71.68
319.00	30.72
319.45	49.15
319.89	-16.38
320.33	53.25
320.78	288.76
321.22	159.74
321.66	-239.61
322.11	94.21
322.55	296.96
322.99	-137.21
323.43	192.51
323.88	129.02
324.32	90.11
324.76	196.60
325.21	147.45
325.65	-14.34
326.09	182.27
326.53	204.80
326.98	182.27
327.42	192.51
327.86	69.63
328.30	235.52
328.75	4.10
329.19	-47.10
329.63	18.43
330.07	667.64
330.52	32.77
330.96	88.06
331.40	14.34
331.84	75.77
332.29	145.41
332.73	20.48
333.17	20.48
333.61	129.02
334.05	59.39
334.50	94.21
334.94	16.38
335.38	-8.19
335.82	276.48
336.27	124.93
336.71	106.49
337.15	90.11
337.59	18.43
338.03	38.91
338.47	45.06
338.92	83.97
339.36	102.40
339.80	-69.63
340.24	69.63
340.68	-43.01
341.13	-55.30
341.57	65.53
342.01	20.48
342.45	-176.13
342.89	145.41
343.33	2.05
343.78	-6.14
344.22	219.13
344.66	313.34
345.10	51.20
345.54	202.75
345.98	198.65
346.43	141.31
346.87	206.84
347.31	30.72
347.75	139.26
348.19	-40.96
348.63	43.01
349.07	233.47
349.51	20.48
349.96	385.02
350.40	163.84
350.84	-22.53
351.28	16.38
351.72	235.52
352.16	55.30
352.60	552.95
353.04	61.44
353.49	-71.68
353.93	-79.87
354.37	133.12
354.81	-43.01
355.25	299.00
355.69	57.34
356.13	137.21
356.57	69.63
357.01	22.53
357.45	59.39
357.89	188.41
358.33	284.67
358.78	-16.38
359.22	126.97
359.66	71.68
360.10	235.52
360.54	184.32
360.98	126.97
361.42	-36.86
361.86	88.06
362.30	59.39
362.74	-43.01
363.18	157.69
363.62	77.82
364.06	61.44
364.50	49.15
364.94	28.67
365.38	227.32
365.82	61.44
366.26	-57.34
366.70	112.64
367.14	-100.35
367.58	141.31
368.02	-90.11
368.46	225.28
368.90	436.22
369.34	-301.05
369.78	159.74
370.22	-65.53
370.66	278.52
371.10	243.71
371.54	163.84
371.98	135.17
372.42	53.25
372.86	0.00
373.30	253.95
373.74	-16.38
374.18	108.54
374.62	-24.58
375.06	75.77
375.50	137.21
375.94	149.50
376.38	176.13
376.82	700.41
377.26	251.90
377.70	94.21
378.14	233.47
378.58	-118.78
379.02	342.01
379.46	102.40
379.90	88.06
380.34	294.91
380.78	313.34
381.22	88.06
381.66	114.69
382.10	71.68
382.53	219.13
382.97	206.84
383.41	172.03
383.85	182.27
384.29	382.97
384.73	141.31
385.17	264.19
385.61	358.39
386.05	-36.86
386.49	-51.20
386.93	106.49
387.36	65.53
387.80	-71.68
388.24	145.41
388.68	-30.72
389.12	108.54
389.56	245.76
390.00	212.99
390.44	104.45
390.88	155.65
391.31	4.10
391.75	182.27
392.19	233.47
392.63	112.64
393.07	-2428.89
393.51	393.21
393.95	86.01
394.39	-40.96
394.82	69.63
395.26	196.60
395.70	57.34
396.14	104.45
396.58	22.53
397.02	311.29
397.45	161.79
397.89	157.69
398.33	262.14
398.77	112.64
399.21	20.48
399.65	532.47
400.08	188.41
400.52	395.26
400.96	335.87
401.40	401.40
401.84	219.13
402.27	231.42
402.71	79.87
403.15	237.56
403.59	32.77
404.03	471.03
404.46	262.14
404.90	288.76
405.34	344.06
405.78	413.69
406.22	124.93
406.65	294.91
407.09	153.60
407.53	430.07
407.97	235.52
408.40	440.31
408.84	585.72
409.28	223.23
409.72	575.48
410.16	241.66
410.59	176.13
411.03	374.78
411.47	442.36
411.91	612.34
412.34	380.92
412.78	337.91
413.22	448.51
413.66	499.70
414.09	464.89
414.53	509.94
414.97	542.71
415.40	518.14
415.84	579.58
416.28	669.69
416.72	296.96
417.15	436.22
417.59	352.25
418.03	632.82
418.46	745.46
418.90	419.83
419.34	557.05
419.78	550.90
420.21	702.45
420.65	557.05
421.09	505.85
421.52	692.21
421.96	493.56
422.40	724.98
422.83	612.34
423.27	606.20
423.71	935.92
424.14	589.82
424.58	626.68
425.02	677.88
425.45	602.10
425.89	921.59
426.33	557.05
426.76	581.62
427.20	569.34
427.64	677.88
428.07	661.49
428.51	524.28
428.95	655.35
429.38	841.72
429.82	567.29
430.26	688.12
430.69	757.75
431.13	782.32
431.57	940.02
432.00	864.24
432.44	772.08
432.87	751.60
433.31	733.17
433.75	872.43
434.18	1011.70
434.62	1107.95
435.05	704.50
435.49	913.39
435.93	628.73
436.36	806.90
436.80	819.19
437.23	866.29
437.67	872.43
438.11	796.66
438.54	1023.98
438.98	1112.05
439.41	1009.65
439.85	989.17
440.29	1110.00
440.72	708.60
441.16	1075.18
441.59	839.67
442.03	854.00
442.46	1234.93
442.90	968.69
443.34	940.02
443.77	989.17
444.21	1058.80
444.64	1122.29
445.08	792.56
445.51	1116.14
445.95	1095.66
446.38	1255.40
446.82	1136.62
447.25	1163.25
447.69	1409.00
448.13	1308.65
448.56	1009.65
449.00	1153.01
449.43	1179.63
449.87	1228.78
450.30	1052.66
450.74	1157.10
451.17	1466.35
451.61	1212.40
452.04	1355.76
452.48	1171.44
452.91	1492.97
453.35	1322.99
453.78	1261.55
454.22	1302.51
454.65	1531.88
455.09	1488.87
455.52	1851.36
455.96	1355.76
456.39	1619.94
456.83	1787.88
457.26	1568.74
457.69	1417.19
458.13	1605.61
458.56	1787.88
459.00	1413.10
459.43	1732.58
459.87	1712.10
460.30	1652.71
460.74	1884.13
461.17	1726.44
461.61	2007.01
462.04	2045.92
462.47	1970.15
462.91	1976.29
463.34	2129.89
463.78	1875.94
464.21	2152.42
464.65	1990.63
465.08	2308.06
465.51	2355.16
465.95	2133.98
466.38	2217.95
466.82	2273.25
467.25	2471.90
467.69	2475.99
468.12	2455.51
468.55	2572.25
468.99	2500.57
469.42	2746.33
469.86	2748.37
470.29	2985.94
470.72	2084.83
471.16	2990.03
471.59	3088.34
472.03	3016.66
472.46	3272.65
472.89	3282.89
473.33	3260.37
473.76	3657.67
474.19	3080.15
474.63	3258.32
475.06	3629.00
475.49	3651.53
475.93	3792.84
476.36	3665.86
476.80	4095.94
477.23	4065.22
477.66	4198.34
478.10	4452.28
478.53	4456.38
478.96	4546.49
479.40	4638.65
479.83	4982.71
480.26	3581.90
480.70	4736.95
481.13	5177.26
481.56	5087.15
482.00	4872.12
482.43	5353.39
482.86	5126.07
483.30	5480.36
483.73	5447.60
484.16	5756.84
484.59	5558.19
485.03	5969.83
485.46	6543.26
485.89	6432.67
486.33	6686.62
486.76	6614.94
487.19	6723.48
487.63	6705.05
488.06	7085.97
488.49	7040.92
488.92	7083.92
489.36	8136.58
489.79	7305.10
490.22	7856.01
490.65	7853.96
491.09	8202.11
491.52	8175.49
491.95	8308.61
492.38	8671.10
492.82	8951.67
493.25	9006.97
493.68	8918.90
494.11	9348.98
494.55	9498.48
494.98	9604.97
495.41	9690.99
495.84	9992.04
496.28	10458.98
496.71	10325.86
497.14	10377.06
497.57	10770.27
498.01	10688.35
498.44	11282.26
498.87	11501.39
499.30	11949.90
499.73	11411.28
500.17	11702.09
500.60	11921.23
501.03	12169.03
501.46	12269.38
501.89	12617.54
502.33	13066.04
502.76	13188.92
503.19	13340.47
503.62	13758.25
504.05	14036.78
504.49	14061.35
504.92	14241.57
505.35	14898.97
505.78	14350.12
506.21	14733.09
506.64	15408.92
507.08	15054.62
507.51	15761.17
507.94	15488.79
508.37	15777.55
508.80	16977.66
509.23	17014.52
509.67	16355.08
510.10	17649.39
510.53	17929.97
510.96	18126.57
511.39	17379.06
511.82	18480.87
512.25	18622.18
512.69	18929.38
513.12	19093.21
513.55	19549.91
513.98	19275.48
514.41	19238.62
514.84	19398.36
515.27	19515.09
515.70	20334.28
516.14	19922.64
516.57	20616.90
517.00	20692.68
517.43	20772.55
517.86	21321.40
518.29	20047.57
518.72	21319.35
519.15	21360.31
519.58	21417.66
520.01	21888.69
520.45	21853.87
520.88	22056.62
521.31	21780.15
521.74	22124.21
522.17	22247.08
522.60	22658.73
523.03	22130.35
523.46	21935.79
523.89	22728.36
524.32	23002.78
524.75	23076.51
525.18	22832.80
525.61	23318.17
526.04	22902.43
526.47	23506.59
526.90	23121.57
527.33	23217.82
527.77	24049.30
528.20	23439.00
528.63	23502.49
529.06	23447.19
529.49	22908.58
529.92	23912.08
530.35	23740.05
530.78	23740.05
531.21	24026.77
531.64	22777.51
532.07	23346.84
532.50	23219.87
532.93	23293.60
533.36	23228.06
533.79	22951.59
534.22	23404.19
534.65	23598.74
535.08	23832.21
535.51	23475.87
535.94	23074.46
536.37	23125.66
536.80	22963.87
537.23	22693.54
537.66	23094.94
538.09	22255.28
538.52	22314.67
538.95	21915.31
539.38	22165.17
539.81	22130.35
540.24	22240.94
540.66	21327.55
541.09	22654.63
541.52	22292.14
541.95	22292.14
542.38	22476.46
542.81	21786.29
543.24	21540.54
543.67	21657.27
544.10	21429.94
544.53	21933.75
544.96	20817.60
545.39	21511.86
545.82	21509.82
546.25	20899.52
546.68	21606.07
547.11	21268.16
547.53	21444.28
547.96	21141.18
548.39	20741.83
548.82	21366.46
549.25	20381.39
549.68	21165.76
550.11	20928.19
550.54	20856.51
550.97	20647.62
551.40	21040.83
551.82	20864.71
552.25	20688.58
552.68	20115.15
553.11	20256.46
553.54	21247.68
553.97	20647.62
554.40	20158.16
554.83	20944.58
555.26	20309.71
555.68	20588.23
556.11	20473.54
556.54	20745.92
556.97	20051.66
557.40	20455.11
557.83	20528.84
558.26	20887.23
558.68	20881.09
559.11	20801.22
559.54	20311.75
559.97	21096.13
560.40	20879.04
560.83	21167.80
561.25	21006.02
561.68	21098.17
562.11	21159.61
562.54	21317.31
562.97	21204.67
563.40	21038.78
563.82	21448.38
564.25	21518.01
564.68	21518.01
565.11	21192.38
565.54	21022.40
565.96	21188.28
566.39	21085.89
566.82	21552.82
567.25	21309.11
567.68	21907.12
568.10	21548.73
568.53	21647.03
568.96	22476.46
569.39	22322.86
569.81	21821.11
570.24	22349.48
570.67	22228.65
571.10	22351.53
571.53	22124.21
571.95	22640.29
572.38	22632.10
572.81	22587.05
573.24	22689.45
573.66	22959.78
574.09	23373.47
574.52	23043.74
574.95	22599.34
575.37	23396.00
575.80	22726.31
576.23	23451.29
576.66	23207.58
577.08	23262.88
577.51	22417.07
577.94	23070.37
578.36	23557.78
578.79	23719.57
579.22	23496.35
579.65	23615.13
580.07	24127.12
580.50	22714.02
580.93	24362.64
581.36	24080.02
581.78	23557.78
582.21	23672.47
582.64	24037.01
583.06	23864.98
583.49	24188.56
583.92	23752.34
584.34	24444.56
584.77	24551.05
585.20	24299.15
585.62	24456.84
586.05	24604.30
586.48	24856.20
586.90	24903.30
587.33	24413.84
587.76	24819.33
588.18	24913.54
588.61	24194.70
589.04	24821.38
589.46	24768.13
589.89	24917.64
590.32	23922.32
590.74	25079.43
591.17	25482.88
591.60	24751.75
592.02	25554.55
592.45	24974.98
592.88	25177.73
593.30	25044.61
593.73	25812.60
594.15	25198.21
594.58	25540.22
595.01	25405.05
595.43	25435.77
595.86	25777.78
596.29	25808.50
596.71	25779.83
597.14	25941.62
597.56	25634.42
597.99	26582.63
598.42	26150.51
598.84	26693.22
599.27	26666.60
599.69	27090.53
600.12	26930.79
600.55	27559.52
600.97	26517.10
601.40	27184.74
601.82	27295.33
602.25	26443.37
602.67	26990.18
603.10	27121.25
603.53	27240.03
603.95	27457.12
604.38	26566.25
604.80	26658.41
605.23	26902.12
605.65	27240.03
606.08	27455.07
606.50	27500.12
606.93	26611.31
607.36	27500.12
607.78	27561.56
608.21	28032.60
608.63	28139.09
609.06	27879.00
609.48	27201.12
609.91	27760.22
610.33	27035.24
610.76	28067.41
611.18	27831.90
611.61	28169.81
612.03	28216.91
612.46	28159.57
612.88	27352.67
613.31	27872.85
613.73	25489.02
614.16	27653.72
614.58	27690.59
615.01	27565.66
615.43	27954.77
615.86	27088.48
616.28	27455.07
616.71	27227.74
617.13	27000.42
617.56	27018.85
617.98	27082.34
618.41	27283.04
618.83	27063.91
619.26	26601.07
619.68	27354.72
620.11	26750.57
620.53	27391.58
620.96	26527.34
621.38	26728.04
621.81	26703.46
622.23	26592.87
622.65	27102.82
623.08	27184.74
623.50	26658.41
623.93	26330.73
624.35	26300.01
624.78	26697.32
625.20	25859.70
625.62	26672.74
626.05	26400.37
626.47	26416.75
626.90	26300.01
627.32	25792.12
627.75	25478.78
628.17	25202.30
628.59	25128.58
629.02	25190.02
629.44	25337.47
629.87	24968.84
630.29	25390.72
630.71	22671.01
631.14	24868.48
631.56	25214.59
631.99	24716.93
632.41	24823.43
632.83	24604.30
633.26	24483.47
633.68	24139.41
634.11	23973.52
634.53	24245.90
634.95	24161.94
635.38	24536.71
635.80	23950.99
636.22	23660.18
636.65	23930.51
637.07	24225.42
637.49	24041.11
637.92	22488.74
638.34	23867.03
638.76	23053.98
639.19	23641.75
639.61	23912.08
640.04	23488.15
640.46	23840.40
640.88	23223.97
641.31	23070.37
641.73	23025.31
642.15	22896.29
642.57	22683.30
643.00	20938.43
643.42	22673.06
643.84	22636.20
644.27	22238.89
644.69	21880.50
645.11	22281.90
645.54	21585.59
645.96	21919.41
646.38	21835.44
646.81	21964.46
647.23	21345.98
647.65	21098.17
648.07	21356.22
648.50	21038.78
648.92	20870.85
649.34	19904.21
649.77	20319.95
650.19	20270.79
650.61	20631.24
651.03	20268.75
651.46	20489.93
651.88	20463.30
652.30	20332.23
652.72	20037.33
653.15	19603.16
653.57	20080.33
653.99	20223.69
654.41	20317.90
654.84	19365.59
655.26	20057.81
655.68	20096.72
656.10	19912.40
656.53	19672.79
656.95	19904.21
657.37	19689.17
657.79	19625.68
658.22	19775.19
658.64	19840.72
659.06	19488.47
659.48	19138.27
659.90	19338.97
660.33	19271.39
660.75	18716.39
661.17	18589.41
661.59	19177.18
662.02	19111.64
662.44	18530.02
662.86	19216.09
663.28	18015.98
663.70	18339.56
664.12	18308.84
664.55	18484.97
664.97	18620.13
665.39	18482.92
665.81	18317.03
666.23	17788.66
666.66	18231.02
667.08	17843.95
667.50	17841.90
667.92	17694.45
668.34	17293.05
668.76	18020.08
669.19	17645.30
669.61	17778.42
670.03	17712.88
670.45	17399.54
670.87	17530.61
671.29	17086.20
671.71	16641.79
672.14	16844.54
672.56	16512.77
672.98	16647.94
673.40	17133.31
673.82	16412.42
674.24	16789.25
674.66	16762.62
675.08	16537.35
675.51	16379.65
675.93	16830.21
676.35	16367.37
676.77	16250.63
677.19	16140.04
677.61	15712.02
678.03	15816.46
678.45	15820.56
678.87	15435.54
679.29	15378.20
679.72	15564.56
680.14	15617.81
680.56	15275.80
680.98	14855.97
681.40	15025.95
681.82	15183.64
682.24	14690.08
682.66	14892.83
683.08	14931.74
683.50	14839.58
683.92	15003.42
684.34	15052.57
684.76	14921.50
685.18	14931.74
685.61	15036.19
686.03	14706.46
686.45	14094.12
686.87	14309.16
687.29	14466.85
687.71	14016.30
688.13	14044.97
688.55	13991.72
688.97	14266.15
689.39	14204.71
689.81	14217.00
690.23	13954.86
690.65	13999.91
691.07	13944.62
691.49	13774.64
691.91	13625.14
692.33	13645.62
692.75	13528.88
693.17	13471.54
693.59	13408.05
694.01	13299.51
694.43	13520.69
694.85	13201.21
695.27	13156.15
695.69	13350.71
696.11	13090.62
696.53	12937.02
696.95	12400.45
697.37	13393.72
697.79	12304.20
698.21	12838.72
698.63	12971.83
699.05	12822.33
699.47	12619.58
699.89	12128.07
700.31	12435.27
700.73	12724.03
701.15	12328.77
701.57	12533.57
701.98	12324.68
702.40	12363.59
702.82	12379.97
703.24	12261.19
703.66	12044.10
704.08	12541.76
704.50	11962.19
704.92	11884.36
705.34	12103.50
705.76	12169.03
706.18	11851.60
706.60	11956.04
707.02	11857.74
707.44	11876.17
707.85	11579.22
708.27	12031.82
708.69	11786.06
709.11	12146.50
709.53	11720.53
709.95	11654.99
710.37	11751.24
710.79	11675.47
711.21	11532.11
711.63	11460.43
712.04	11106.13
712.46	11226.96
712.88	10850.14
713.30	10432.35
713.72	11110.23
714.14	10960.73
714.56	11167.57
714.98	11147.09
715.39	10712.92
715.81	10729.31
716.23	10819.42
716.65	10461.02
717.07	10420.06
717.49	10360.67
717.91	10409.83
718.32	10198.88
718.74	10491.74
719.16	10129.25
719.58	10194.79
720.00	10116.97
720.42	10205.03
720.83	10067.81
721.25	9916.26
721.67	9512.81
722.09	9615.21
722.51	9494.38
722.93	9291.63
723.34	9193.33
723.76	9052.02
724.18	9156.47
724.60	9009.01
725.02	9238.39
725.43	8599.42
725.85	9056.12
726.27	8939.38
726.69	9013.11
727.11	8873.85
727.52	9084.79
727.94	8720.25
728.36	8841.08
728.78	8630.14
729.19	8476.54
729.61	8425.34
730.03	8525.69
730.45	8210.31
730.87	8345.47
731.28	8419.20
731.70	8007.56
732.12	8060.81
732.54	7839.62
732.95	8126.34
733.37	7827.34
733.79	7815.05
734.21	7227.28
734.62	7509.90
735.04	7710.60
735.46	7624.59
735.87	7561.10
736.29	7712.65
736.71	7397.26
737.13	7554.96
737.54	7419.79
737.96	7403.41
738.38	7258.00
738.80	6961.05
739.21	7034.77
739.63	7188.37
740.05	7083.92
740.46	7475.09
740.88	6746.01
741.30	5525.42
741.71	6657.95
742.13	6897.56
742.55	7069.59
742.97	6733.72
743.38	6733.72
743.80	6752.15
744.22	6821.78
744.63	6641.56
745.05	6033.32
745.47	6143.91
745.88	6457.25
746.30	5937.06
746.72	6059.94
747.13	5863.33
747.55	5840.81
747.97	5822.38
748.38	5574.57
748.80	5638.06
749.22	5636.01
749.63	5666.73
750.05	5648.30
750.46	5304.24
750.88	5554.09
751.30	5050.29
751.71	4757.43
752.13	5330.86
752.55	5068.72
752.96	4945.84
753.38	4951.99
753.79	4853.69
754.21	4710.33
754.63	4515.77
755.04	4706.23
755.46	4693.94
755.88	4616.12
756.29	4622.27
756.71	4302.78
757.12	4284.35
757.54	4177.86
757.96	3911.62
758.37	4016.07
758.79	4145.09
759.20	3979.20
759.62	3932.10
760.03	3835.85
760.45	3762.12
760.87	3882.95
761.28	3811.27
761.70	3784.65
762.11	3614.66
762.53	3516.36
762.94	3395.53
763.36	3432.40
763.78	3270.61
764.19	3532.75
764.61	3504.07
765.02	3383.24
765.44	3133.39
765.85	3282.89
766.27	3383.24
766.68	3280.85
767.10	3178.45
767.51	3147.73
767.93	2838.48
768.34	3168.21
768.76	3121.10
769.18	2895.83
769.59	2996.18
770.01	3012.56
770.42	3080.14
770.84	2838.48
771.25	2719.70
771.67	2897.88
772.08	2672.60
772.50	2897.88
772.91	2680.79
773.33	2803.67
773.74	2664.41
774.16	2617.30
774.57	2627.54
774.99	2562.01
775.40	2549.72
775.81	3344.33
776.23	2443.23
776.64	2619.35
777.06	2482.14
777.47	2457.56
777.89	2607.06
778.30	2320.35
778.72	2363.36
779.13	2162.65
779.55	2172.89
779.96	2236.38
780.38	1961.95
780.79	1920.99
781.20	2101.22
781.62	2195.42
782.03	2125.79
782.45	2052.06
782.86	2179.04
783.28	2068.45
783.69	2047.97
784.10	2074.59
784.52	1830.88
784.93	1796.07
785.35	2007.01
785.76	1941.47
786.18	1914.85
786.59	1877.99
787.00	1859.56
787.42	1685.48
787.83	1798.12
788.25	2086.88
788.66	1769.44
789.07	1794.02
789.49	1892.32
789.90	1996.77
790.32	1843.17
790.73	1675.24
791.14	1535.98
791.56	1753.06
791.97	1767.40
792.38	1488.87
792.80	1689.57
793.21	1628.14
793.62	1486.83
794.04	1589.22
794.45	1406.95
794.87	1441.77
795.28	1703.91
795.69	1425.39
796.11	1378.28
796.52	1404.91
796.93	1495.02
797.35	1302.51
797.76	1136.62
798.17	1247.21
798.59	1310.70
799.00	1343.47
799.41	1159.15
799.83	1124.33
800.24	1361.90
800.65	1120.24
801.07	1124.33
801.48	1075.18
801.89	2482.14
802.31	931.83
802.72	708.60
803.13	755.70
803.54	794.61
803.96	661.49
804.37	745.46
804.78	761.84
805.20	819.19
805.61	552.95
806.02	643.06
806.43	534.52
806.85	583.67
807.26	579.58
807.67	401.40
808.09	333.82
808.50	514.04
808.91	487.42
809.32	630.77
809.74	421.88
810.15	385.02
810.56	438.27
810.97	401.40
811.39	296.96
811.80	376.83
812.21	272.38
812.62	440.31
813.04	411.64
813.45	518.14
813.86	217.08
814.27	407.55
814.68	339.96
815.10	249.85
815.51	139.26
815.92	337.91
816.33	325.63
816.75	460.79
817.16	272.38
817.57	393.21
817.98	544.76
818.39	256.00
818.81	299.00
819.22	153.60
819.63	235.52
820.04	49.15
820.45	260.09
820.87	188.41
821.28	112.64
821.69	231.42
822.10	399.35
822.51	30.72
822.92	22.53
823.34	235.52
823.75	274.43
824.16	-2908.12
824.57	59.39
824.98	385.02
825.39	184.32
825.81	206.84
826.22	122.88
826.63	335.87
827.04	112.64
827.45	86.01
827.86	342.01
828.28	385.02
828.69	169.98
829.10	327.68
829.51	266.24
829.92	317.44
830.33	102.40
830.74	290.81
831.15	184.32
831.57	241.66
831.98	393.21
832.39	86.01
832.80	120.83
833.21	405.50
833.62	73.73
834.03	186.37
834.44	456.70
834.85	180.22
835.26	159.74
835.68	393.21
836.09	258.04
836.50	247.80
836.91	333.82
837.32	212.99
837.73	155.65
838.14	368.63
838.55	67.58
838.96	145.41
839.37	294.91
839.78	26.62
840.19	274.43
840.60	65.53
841.02	178.17
841.43	157.69
841.84	303.10
842.25	14.34
842.66	8.19
843.07	182.27
843.48	237.56
843.89	16.38
844.30	110.59
844.71	22.53
845.12	65.53
845.53	131.07
845.94	90.11
846.35	331.77
846.76	-34.82
847.17	352.25
847.58	208.89
847.99	147.45
848.40	133.12
848.81	145.41
849.22	69.63
849.63	100.35
850.04	174.08
850.45	96.25
850.86	200.70
851.27	264.19
851.68	210.94
852.09	4.10
852.50	86.01
852.91	96.25
853.32	270.33
853.73	163.84
854.14	-92.16
854.55	143.36
854.96	-34.82
855.37	131.07
855.78	145.41
856.19	-45.06
856.60	299.00
857.01	98.30
857.42	262.14
857.83	169.98
858.24	276.48
858.64	0.00
859.05	86.01
859.46	-122.88
859.87	194.56
860.28	116.73
860.69	141.31
861.10	49.15
861.51	169.98
861.92	186.37
862.33	26.62
862.74	114.69
863.15	88.06
863.56	184.32
863.96	212.99
864.37	329.72
864.78	-26.62
865.19	229.37
865.60	20.48
866.01	442.36
866.42	239.61
866.83	59.39
867.24	444.41
867.65	380.92
868.05	321.53
868.46	237.56
868.87	282.62
869.28	423.93
869.69	122.88
870.10	1001.46
870.51	196.60
870.92	393.21
871.32	182.27
871.73	172.03
872.14	346.11
872.55	219.13
872.96	253.95
873.37	309.24
873.77	253.95
874.18	251.90
874.59	108.54
875.00	395.26
875.41	278.52
875.82	251.90
876.22	376.83
876.63	534.52
877.04	327.67
877.45	118.78
877.86	253.95
878.27	102.40
878.67	141.31
879.08	174.08
879.49	280.57
879.90	319.48
880.31	458.74
880.71	288.76
881.12	235.52
881.53	311.29
881.94	307.20
882.35	268.28
882.75	393.21
883.16	196.60
883.57	22.53
883.98	106.49
884.38	290.81
884.79	274.43
885.20	219.13
885.61	337.91
886.02	94.21
886.42	419.83
886.83	47.10
887.24	131.07
887.65	294.91
888.05	137.21
888.46	364.54
888.87	106.49
889.28	331.77
889.68	159.74
890.09	280.57
890.50	-133.12
890.91	59.39
891.31	405.50
891.72	32.77
892.13	249.85
892.53	51.20
892.94	391.16
893.35	-106.49
893.76	157.69
894.16	339.96
894.57	194.56
894.98	212.99
895.38	190.46
895.79	6.14
896.20	227.32
896.61	346.11
897.01	14.34
897.42	169.98
897.83	135.17
898.23	223.23
898.64	71.68
899.05	292.86
899.45	10.24
899.86	237.56
900.27	223.23
900.67	38.91
901.08	-20.48
901.49	155.65
901.89	141.31
902.30	22.53
902.71	217.08
903.11	174.08
903.52	178.17
903.93	-110.59
904.33	129.02
904.74	61.44
905.15	49.15
905.55	346.11
905.96	243.71
906.36	139.26
906.77	-129.02
907.18	24.58
907.58	36.86
907.99	10.24
908.40	75.77
908.80	73.73
909.21	210.94
909.61	59.39
910.02	284.67
910.43	184.32
910.83	8.19
911.24	8.19
911.64	174.08
912.05	-141.31
912.46	47.10
912.86	83.97
913.27	-20.48
913.67	92.16
914.08	473.08
914.48	206.84
914.89	100.35
915.30	108.54
915.70	131.07
916.11	24.58
916.51	63.49
916.92	155.65
917.32	-77.82
917.73	126.97
918.14	100.35
918.54	61.44
918.95	180.22
919.35	-40.96
919.76	61.44
920.16	350.20
920.57	59.39
920.97	73.73
921.38	196.61
921.78	81.92
922.19	126.97
922.59	81.92
923.00	106.49
923.41	94.21
923.81	225.28
924.22	147.45
924.62	71.68
925.03	108.54
925.43	190.46
925.84	86.01
926.24	12.29
926.65	186.37
927.05	200.70
927.46	-6.14
927.86	155.65
928.27	108.54
928.67	18.43
929.08	165.89
929.48	456.70
929.88	176.13
930.29	79.87
930.69	-16.38
931.10	18.43
931.50	-8.19
931.91	-12.29
932.31	83.97
932.72	45.06
933.12	45.06
933.53	79.87
933.93	96.25
934.34	-24.58
934.74	141.31
935.14	145.41
935.55	122.88
935.95	169.98
936.36	34.82
936.76	-120.83
937.17	-18.43
937.57	227.32
937.97	4.10
938.38	161.79
938.78	81.92
939.19	192.51
939.59	137.21
940.00	-22.53
940.40	143.36
940.80	94.21
941.21	-18.43
941.61	34.82
942.02	186.37
942.42	180.22
942.82	245.76
943.23	182.27
943.63	294.91
944.04	221.18
944.44	88.06
944.84	126.97
945.25	233.47
945.65	131.07
946.05	155.65
946.46	90.11
946.86	260.09
947.26	-1296.36
947.67	100.35
948.07	83.97
948.48	169.98
948.88	73.73
949.28	-118.78
949.69	147.45
950.09	-10.24
950.49	122.88
950.90	153.60
951.30	215.04
951.70	337.91
952.11	-55.30
952.51	-147.45
952.91	120.83
953.32	12.29
953.72	108.54
954.12	423.93
954.53	4.10
954.93	63.49
955.33	90.11
955.74	-24.58
956.14	147.45
956.54	256.00
956.94	-57.34
957.35	135.17
957.75	26.62
958.15	83.97
958.56	86.01
958.96	63.49
959.36	270.33
959.76	260.09
960.17	219.13
960.57	69.63
960.97	155.65
961.38	-20.48
961.78	110.59
962.18	479.22
962.58	75.77
962.99	-83.97
963.39	210.94
963.79	24.58
964.19	100.35
964.60	208.89
965.00	147.45
965.40	108.54
965.80	-4.10
966.21	268.28
966.61	178.17
967.01	98.30
967.41	104.45
967.81	-133.12
968.22	135.17
968.62	-20.48
969.02	-59.39
969.42	249.85
969.83	63.49
970.23	112.64
970.63	-180.22
971.03	-16.38
971.43	-14.34
971.84	215.04
972.24	104.45
972.64	178.17
973.04	137.21
973.44	206.84
973.85	233.47
974.25	86.01
974.65	247.80
975.05	212.99
975.45	309.24
975.85	174.08
976.26	96.25
976.66	270.33
977.06	274.43
977.46	176.13
977.86	167.93
978.26	325.63
978.67	219.13
979.07	196.61
979.47	75.77
979.87	178.17
980.27	192.51
980.67	184.32
981.07	155.65
981.48	133.12
981.88	346.11
982.28	458.74
982.68	75.77
983.08	239.61
983.48	192.51
983.88	301.05
984.29	413.69
984.69	153.60
985.09	102.40
985.49	417.79
985.89	194.56
986.29	126.97
986.69	204.80
987.09	186.37
987.49	337.91
987.89	237.56
988.30	-126.97
988.70	364.54
989.10	327.67
989.50	237.56
989.90	368.63
990.30	159.74
990.70	274.43
991.10	249.85
991.50	153.60
991.90	280.57
992.30	30.72
992.70	356.35
993.10	145.41
993.50	-6.14
993.91	342.01
994.31	348.15
994.71	415.74
995.11	223.23
995.51	413.69
995.91	229.37
996.31	364.54
996.71	159.74
997.11	114.69
997.51	389.11
997.91	247.80
998.31	18.43
998.71	159.74
999.11	253.95
999.51	47.10
999.91	366.59
1000.31	18.43
1000.71	288.76
1001.11	223.23
1001.51	24.58
1001.91	413.69
1002.31	231.42
1002.71	337.91
1003.11	593.91
1003.51	149.50
1003.91	43.01
1004.31	280.57
1004.71	215.04
1005.11	462.84
1005.51	159.74
1005.91	227.32
1006.31	182.27
1006.71	460.79
1007.11	155.65
1007.51	65.53
1007.91	251.90
1008.31	401.40
1008.71	133.12
1009.11	292.86
1009.51	292.86
1009.91	563.19
1010.30	382.97
1010.70	272.38
1011.10	342.01
1011.50	241.66
1011.90	290.81
1012.30	180.22
1012.70	6.14
1013.10	397.31
1013.50	212.99
1013.90	94.21
1014.30	227.32
1014.70	329.72
1015.10	176.13
1015.50	339.96
1015.89	534.52
1016.29	196.60
1016.69	325.63
1017.09	364.54
1017.49	176.13
1017.89	425.98
1018.29	440.31
1018.69	188.41
1019.09	129.02
1019.48	294.91
1019.88	481.27
1020.28	155.65
1020.68	190.46
1021.08	233.47
1021.48	243.71
1021.88	303.10
1022.28	385.02
1022.67	354.30
1023.07	477.18
1023.47	223.23
1023.87	227.32
1024.27	253.95
1024.67	436.22
1025.07	329.72
1025.46	419.83
1025.86	245.76
1026.26	589.81
1026.66	391.16
1027.06	284.67
1027.46	438.27
1027.85	442.36
1028.25	385.02
1028.65	385.02
1029.05	501.75
1029.45	321.53
1029.85	247.80
1030.24	462.84
1030.64	350.20
1031.04	536.57
1031.44	145.41
1031.84	649.21
1032.23	454.65
1032.63	307.20
1033.03	376.83
1033.43	434.17
1033.83	540.66
1034.22	358.39
1034.62	679.93
1035.02	559.10
1035.42	489.46
1035.81	376.83
1036.21	413.69
1036.61	526.33
1037.01	440.31
1037.41	567.29
1037.80	432.12
1038.20	729.08
1038.60	458.75
1039.00	270.33
1039.39	798.71
1039.79	475.13
1040.19	399.35
1040.59	464.89
1040.98	505.85
1041.38	442.36
1041.78	624.63
1042.17	405.50
1042.57	305.15
1042.97	608.25
1043.37	534.52
1043.76	509.94
1044.16	286.72
1044.56	444.41
1044.96	391.16
1045.35	333.82
1045.75	448.51
1046.15	690.17
1046.54	720.89
1046.94	589.82
1047.34	395.26
1047.73	481.27
1048.13	460.79
1048.53	514.04
1048.93	333.82
1049.32	573.43
1049.72	382.97
1050.12	401.40
1050.51	442.36
1050.91	454.65
1051.31	731.12
1051.70	370.68
1052.10	471.03
1052.50	557.05
1052.89	479.22
1053.29	296.96
1053.69	407.55
1054.08	514.04
1054.48	471.03
1054.87	561.14
1055.27	471.03
1055.67	501.75
1056.06	423.93
1056.46	466.94
1056.86	569.34
1057.25	837.62
1057.65	473.08
1058.05	415.74
1058.44	589.82
1058.84	663.54
1059.23	487.42
1059.63	739.32
1060.03	307.20
1060.42	602.10
1060.82	567.29
1061.21	567.29
1061.61	595.96
1062.01	708.60
1062.40	419.83
1062.80	602.10
1063.19	532.47
1063.59	409.59
1063.99	471.03
1064.38	583.67
1064.78	565.24
1065.17	555.00
1065.57	493.56
1065.97	477.18
1066.36	837.62
1066.76	522.23
1067.15	767.99
1067.55	585.72
1067.94	538.62
1068.34	608.25
1068.73	421.88
1069.13	370.68
1069.53	454.65
1069.92	657.40
1070.32	710.65
1070.71	460.79
1071.11	548.86
1071.50	442.36
1071.90	538.62
1072.29	673.78
1072.69	462.84
1073.08	587.77
1073.48	475.13
1073.87	559.10
1074.27	573.43
1074.66	477.18
1075.06	399.35
1075.45	370.68
1075.85	782.32
1076.24	663.54
1076.64	681.97
1077.03	610.29
1077.43	714.74
1077.82	559.10
1078.22	632.82
1078.61	593.91
1079.01	612.34
1079.40	526.33
1079.80	712.69
1080.19	616.44
1080.59	612.34
1080.98	440.31
1081.38	577.53
1081.77	679.93
1082.17	550.90
1082.56	710.65
1082.96	542.71
1083.35	598.01
1083.75	608.25
1084.14	514.04
1084.53	614.39
1084.93	624.63
1085.32	534.52
1085.72	612.34
1086.11	788.47
1086.51	794.61
1086.90	399.35
1087.30	583.67
1087.69	733.17
1088.08	325.63
1088.48	641.01
1088.87	741.36
1089.27	507.90
1089.66	647.16
1090.05	571.38
1090.45	520.18
1090.84	679.93
1091.24	505.85
1091.63	788.47
1092.02	677.88
1092.42	505.85
1092.81	602.10
1093.21	733.17
1093.60	446.46
1093.99	511.99
1094.39	808.95
1094.78	645.11
1095.18	645.11
1095.57	679.93
1095.96	266.24
1096.36	802.80
1096.75	641.01
1097.14	604.15
1097.54	374.78
1097.93	350.20
1098.32	571.38
1098.72	395.26
1099.11	577.53
1099.50	569.34
1099.90	495.61
1100.29	425.98
1100.69	595.96
1101.08	763.89
1101.47	567.29
1101.87	487.42
1102.26	495.61
1102.65	679.93
1103.04	669.69
1103.44	575.48
1103.83	532.47
1104.22	747.51
1104.62	569.34
1105.01	782.32
1105.40	534.52
1105.80	444.41
1106.19	415.74
1106.58	628.73
1106.98	544.76
1107.37	563.19
1107.76	630.77
1108.15	684.02
1108.55	600.05
1108.94	663.54
1109.33	342.01
1109.73	460.79
1110.12	647.16
1110.51	700.41
1110.90	387.07
1111.30	423.93
1111.69	524.28
1112.08	563.19
1112.47	741.36
1112.87	342.01
1113.26	546.81
1113.65	786.42
1114.04	432.12
1114.44	657.40
1114.83	403.45
1115.22	569.34
1115.61	606.20
1116.01	628.73
1116.40	499.70
1116.79	446.46
1117.18	526.33
1117.58	802.80
1117.97	536.57
1118.36	567.29
1118.75	696.31
1119.14	546.81
1119.54	577.53
1119.93	692.21
1120.32	417.79
1120.71	677.88
1121.10	575.48
1121.50	634.87
1121.89	790.52
1122.28	563.19
1122.67	567.29
1123.06	1202.16
1123.46	813.04
1123.85	501.75
1124.24	575.48
1124.63	655.35
1125.02	765.94
1125.41	735.22
1125.81	667.64
1126.20	684.02
1126.59	415.74
1126.98	503.80
1127.37	567.29
1127.76	655.35
1128.16	737.27
1128.55	610.29
1128.94	698.36
1129.33	702.45
1129.72	542.71
1130.11	813.04
1130.50	540.66
1130.90	649.21
1131.29	661.49
1131.68	565.24
1132.07	796.66
1132.46	849.91
1132.85	686.07
1133.24	823.28
1133.63	659.45
1134.03	704.50
1134.42	647.16
1134.81	835.57
1135.20	606.20
1135.59	870.39
1135.98	589.82
1136.37	761.84
1136.76	700.41
1137.15	864.24
1137.54	612.34
1137.94	448.51
1138.33	819.19
1138.72	624.63
1139.11	792.56
1139.50	970.74
1139.89	913.39
1140.28	333.82
1140.67	618.49
1141.06	790.52
1141.45	632.82
1141.84	729.08
1142.23	819.19
1142.62	854.00
1143.01	755.70
1143.40	608.25
1143.80	718.84
1144.19	595.96
1144.58	735.22
1144.97	716.79
1145.36	890.87
1145.75	524.28
1146.14	923.63
1146.53	559.10
1146.92	774.13
1147.31	847.86
1147.70	825.33
1148.09	829.43
1148.48	761.84
1148.87	876.53
1149.26	577.53
1149.65	944.11
1150.04	626.68
1150.43	780.28
1150.82	960.50
1151.21	665.59
1151.60	552.95
1151.99	921.59
1152.38	868.34
1152.77	657.40
1153.16	722.93
1153.55	-3471.31
1153.94	755.70
1154.33	530.42
1154.72	663.54
1155.11	733.17
1155.50	821.24
1155.89	980.98
1156.28	970.74
1156.67	632.82
1157.06	753.65
1157.44	1028.08
1157.83	827.38
1158.22	706.55
1158.61	989.17
1159.00	747.51
1159.39	632.82
1159.78	858.10
1160.17	722.93
1160.56	700.41
1160.95	714.74
1161.34	823.28
1161.73	925.68
1162.12	933.87
1162.51	815.09
1162.90	925.68
1163.28	958.45
1163.67	983.02
1164.06	808.95
1164.45	1003.50
1164.84	763.89
1165.23	968.69
1165.62	827.38
1166.01	806.90
1166.40	747.51
1166.79	681.97
1167.17	782.32
1167.56	749.56
1167.95	681.97
1168.34	894.96
1168.73	882.67
1169.12	899.06
1169.51	747.51
1169.90	798.71
1170.28	1107.95
1170.67	817.14
1171.06	1064.94
1171.45	1204.21
1171.84	987.12
1172.23	735.22
1172.62	950.26
1173.00	829.43
1173.39	706.55
1173.78	686.07
1174.17	1105.90
1174.56	1013.74
1174.95	819.19
1175.33	1249.26
1175.72	903.15
1176.11	727.03
1176.50	913.39
1176.89	911.35
1177.28	876.53
1177.66	851.95
1178.05	612.34
1178.44	858.10
1178.83	708.60
1179.22	800.76
1179.60	765.94
1179.99	686.07
1180.38	948.21
1180.77	944.11
1181.16	878.58
1181.54	733.17
1181.93	720.88
1182.32	825.33
1182.71	888.82
1183.09	937.97
1183.48	811.00
1183.87	677.88
1184.26	993.26
1184.65	849.91
1185.03	1071.09
1185.42	886.77
1185.81	987.12
1186.20	806.90
1186.58	974.83
1186.97	833.52
1187.36	864.24
1187.75	1015.79
1188.13	872.43
1188.52	1304.56
1188.91	927.73
1189.30	903.15
1189.68	991.22
1190.07	851.95
1190.46	1146.86
1190.84	770.04
1191.23	835.57
1191.62	954.35
1192.01	997.36
1192.39	808.95
1192.78	946.16
1193.17	907.25
1193.55	897.01
1193.94	1003.50
1194.33	1026.03
1194.72	1193.97
1195.10	1220.59
1195.49	2222.05
1195.88	1054.70
1196.26	985.07
1196.65	968.69
1197.04	1015.79
1197.42	905.20
1197.81	1433.58
1198.20	1208.30
1198.58	1015.79
1198.97	1005.55
1199.36	1095.66
1199.74	1148.91
1200.13	940.02
1200.52	1314.80
1200.90	1079.28
1201.29	1044.46
1201.68	964.59
1202.06	1050.61
1202.45	573.43
1202.84	1023.98
1203.22	782.32
1203.61	1267.69
1203.99	913.39
1204.38	1146.86
1204.77	1275.88
1205.15	1253.36
1205.54	1163.25
1205.93	1322.99
1206.31	1517.54
1206.70	1095.66
1207.08	1279.98
1207.47	1140.72
1207.86	1157.10
1208.24	1191.92
1208.63	1073.14
1209.01	1118.19
1209.40	1261.55
1209.79	1128.43
1210.17	1208.30
1210.56	1210.35
1210.94	1271.79
1211.33	1218.54
1211.72	1122.29
1212.10	1064.94
1212.49	1130.48
1212.87	1118.19
1213.26	1468.39
1213.64	1220.59
1214.03	1026.03
1214.42	1230.83
1214.80	1204.21
1215.19	925.68
1215.57	1132.53
1215.96	1349.61
1216.34	1443.82
1216.73	1279.98
1217.11	1091.57
1217.50	1019.89
1217.89	1368.04
1218.27	974.83
1218.66	1556.46
1219.04	1294.32
1219.43	1374.19
1219.81	1290.22
1220.20	1404.91
1220.58	1220.59
1220.97	1337.32
1221.35	1089.52
1221.74	1474.54
1222.12	1114.10
1222.51	1226.73
1222.89	1144.81
1223.28	1144.81
1223.66	1206.25
1224.05	1294.32
1224.43	1302.51
1224.82	1578.98
1225.20	1144.81
1225.59	1245.16
1225.97	1138.67
1226.36	1466.35
1226.74	1161.20
1227.13	1198.06
1227.51	1234.93
1227.90	1189.87
1228.28	1089.52
1228.66	1273.84
1229.05	1105.90
1229.43	1347.56
1229.82	1163.25
1230.20	1415.15
1230.59	1290.22
1230.97	1085.42
1231.36	1378.28
1231.74	1318.89
1232.13	1382.38
1232.51	1318.89
1232.89	1318.89
1233.28	1386.47
1233.66	1093.62
1234.05	1265.64
1234.43	1142.77
1234.82	1261.55
1235.20	1417.19
1235.58	1185.77
1235.97	1308.65
1236.35	1308.65
1236.74	1279.98
1237.12	1232.88
1237.50	1290.22
1237.89	1239.02
1238.27	1214.45
1238.66	1427.43
1239.04	1310.70
1239.42	1044.46
1239.81	1320.94
1240.19	1142.77
1240.58	1394.67
1240.96	1302.51
1241.34	1191.92
1241.73	1241.07
1242.11	1175.53
1242.49	1087.47
1242.88	1208.30
1243.26	1179.63
1243.64	1304.56
1244.03	1279.98
1244.41	1171.44
1244.80	1394.67
1245.18	1253.36
1245.56	1429.48
1245.95	1406.95
1246.33	1306.60
1246.71	1505.26
1247.10	1331.18
1247.48	1304.56
1247.86	1224.69
1248.25	1320.94
1248.63	1316.84
1249.01	1234.93
1249.40	1587.18
1249.78	1314.80
1250.16	1292.27
1250.55	1204.21
1250.93	1193.97
1251.31	1230.83
1251.69	1208.30
1252.08	1308.65
1252.46	845.81
1252.84	1169.39
1253.23	1284.08
1253.61	1247.21
1253.99	1193.97
1254.37	1269.74
1254.76	1279.98
1255.14	1259.50
1255.52	1279.98
1255.91	1185.77
1256.29	1257.45
1256.67	1241.07
1257.05	1466.35
1257.44	1234.93
1257.82	1386.47
1258.20	1302.51
1258.58	952.31
1258.97	1251.31
1259.35	1378.28
1259.73	1331.18
1260.11	1531.88
1260.50	935.92
1260.88	1273.84
1261.26	1310.70
1261.64	1136.62
1262.03	1431.53
1262.41	1165.29
1262.79	1136.62
1263.17	1239.02
1263.56	1669.09
1263.94	1214.45
1264.32	1196.01
1264.70	1171.44
1265.08	1091.57
1265.47	1216.49
1265.85	1036.27
1266.23	1259.50
1266.61	1155.05
1266.99	1142.77
1267.38	1032.18
1267.76	1253.36
1268.14	1374.19
1268.52	1056.75
1268.90	1085.42
1269.29	1263.60
1269.67	1249.26
1270.05	1232.88
1270.43	1116.14
1270.81	1232.88
1271.19	1302.51
1271.58	925.68
1271.96	1026.03
1272.34	1216.49
1272.72	1468.39
1273.10	1066.99
1273.48	1200.11
1273.86	1208.30
1274.25	1314.80
1274.63	1093.62
1275.01	1271.79
1275.39	1140.72
1275.77	1159.15
1276.15	1114.10
1276.53	1013.74
1276.92	1116.14
1277.30	1116.14
1277.68	1167.34
1278.06	1216.49
1278.44	1200.11
1278.82	1105.90
1279.20	1058.80
1279.58	1093.62
1279.97	1218.54
1280.35	1085.42
1280.73	1159.15
1281.11	1245.17
1281.49	1052.66
1281.87	1134.57
1282.25	1050.61
1282.63	1050.61
1283.01	1146.86
1283.39	978.93
1283.77	1251.31
1284.16	1230.83
1284.54	946.16
1284.92	1384.43
1285.30	1196.01
1285.68	1107.95
1286.06	1187.82
1286.44	1058.80
1286.82	1288.17
1287.20	1028.08
1287.58	987.12
1287.96	1003.50
1288.34	1161.20
1288.72	1087.47
1289.10	1064.94
1289.48	1048.56
1289.86	1091.57
1290.24	1040.37
1290.62	1271.79
1291.00	1069.04
1291.38	1099.76
1291.77	1132.53
1292.15	1091.57
1292.53	1255.40
1292.91	1226.73
1293.29	1048.56
1293.67	952.31
1294.05	964.59
1294.43	1023.98
1294.81	980.98
1295.19	1077.23
1295.57	1032.18
1295.95	1044.46
1296.33	1198.06
1296.71	1253.36
1297.09	1433.58
1297.47	1009.65
1297.85	901.11
1298.23	1140.72
1298.60	958.45
1298.98	1107.95
1299.36	1159.15
1299.74	964.59
1300.12	1232.88
1300.50	999.41
1300.88	1085.42
1301.26	1060.85
1301.64	1216.49
1302.02	964.59
1302.40	987.12
1302.78	1048.56
1303.16	1130.48
1303.54	1122.29
1303.92	1017.84
1304.30	1132.53
1304.68	1007.60
1305.06	1232.88
1305.44	1060.85
1305.82	1069.04
1306.19	1030.13
1306.57	1093.62
1306.95	1013.74
1307.33	1056.75
1307.71	1146.86
1308.09	958.45
1308.47	800.76
1308.85	1019.89
1309.23	1023.98
1309.61	1228.78
1309.99	1054.70
1310.36	1189.87
1310.74	1337.32
1311.12	1370.09
1311.50	1095.66
1311.88	995.31
1312.26	1091.57
1312.64	1130.48
1313.02	999.41
1313.39	968.69
1313.77	935.92
1314.15	1124.33
1314.53	1026.03
1314.91	980.98
1315.29	1062.90
1315.67	1124.33
1316.05	1167.34
1316.42	1044.46
1316.80	1017.84
1317.18	927.73
1317.56	1048.56
1317.94	1013.74
1318.32	960.50
1318.69	1091.57
1319.07	866.29
1319.45	1101.81
1319.83	868.34
1320.21	980.98
1320.59	481.27
1320.96	948.21
1321.34	1200.11
1321.72	987.12
1322.10	1091.57
1322.48	890.87
1322.85	1079.28
1323.23	995.31
1323.61	1150.96
1323.99	946.16
1324.37	1011.70
1324.74	864.24
1325.12	1003.50
1325.50	974.83
1325.88	1230.83
1326.26	946.16
1326.63	946.16
1327.01	942.07
1327.39	1073.14
1327.77	909.30
1328.14	919.54
1328.52	911.35
1328.90	1042.42
1329.28	1058.80
1329.66	866.29
1330.03	1066.99
1330.41	997.36
1330.79	886.77
1331.17	866.29
1331.54	1066.99
1331.92	1173.49
1332.30	753.65
1332.67	1073.14
1333.05	1044.46
1333.43	966.64
1333.81	944.11
1334.18	1236.97
1334.56	784.37
1334.94	995.31
1335.32	944.11
1335.69	802.80
1336.07	1013.74
1336.45	1179.63
1336.82	1017.84
1337.20	1083.38
1337.58	931.83
1337.96	1034.22
1338.33	1126.38
1338.71	976.88
1339.09	954.35
1339.46	989.17
1339.84	1136.62
1340.22	940.02
1340.59	862.19
1340.97	1124.33
1341.35	935.92
1341.72	829.43
1342.10	1116.14
1342.48	903.15
1342.85	901.11
1343.23	739.32
1343.61	993.26
1343.98	1114.09
1344.36	882.67
1344.74	884.72
1345.11	919.54
1345.49	993.26
1345.87	880.63
1346.24	1038.32
1346.62	911.35
1347.00	862.19
1347.37	815.09
1347.75	1243.12
1348.12	1079.28
1348.50	694.26
1348.88	663.54
1349.25	739.32
1349.63	909.30
1350.00	872.43
1350.38	862.19
1350.76	1005.55
1351.13	632.82
1351.51	950.26
1351.89	1112.05
1352.26	874.48
1352.64	897.01
1353.01	1200.11
1353.39	925.68
1353.76	909.30
1354.14	1081.33
1354.52	847.86
1354.89	843.76
1355.27	860.15
1355.64	700.41
1356.02	743.41
1356.40	1021.94
1356.77	747.51
1357.15	993.26
1357.52	817.14
1357.90	1001.46
1358.27	960.50
1358.65	978.93
1359.02	962.55
1359.40	811.00
1359.78	911.35
1360.15	845.81
1360.53	888.82
1360.90	942.07
1361.28	976.88
1361.65	827.38
1362.03	899.06
1362.40	1038.32
1362.78	923.63
1363.15	743.41
1363.53	997.36
1363.90	987.12
1364.28	837.62
1364.65	819.19
1365.03	1720.29
1365.40	851.95
1365.78	966.64
1366.15	858.10
1366.53	870.39
1366.90	862.19
1367.28	831.48
1367.65	825.33
1368.03	905.20
1368.40	964.59
1368.78	829.43
1369.15	741.36
1369.53	864.24
1369.90	849.91
1370.28	790.52
1370.65	792.56
1371.03	702.45
1371.40	794.61
1371.78	903.15
1372.15	882.67
1372.53	634.87
1372.90	792.56
1373.27	835.57
1373.65	860.15
1374.02	704.50
1374.40	872.43
1374.77	1099.76
1375.15	622.58
1375.52	958.45
1375.89	829.43
1376.27	1083.38
1376.64	849.91
1377.02	819.19
1377.39	808.95
1377.77	718.84
1378.14	860.15
1378.51	821.24
1378.89	897.01
1379.26	745.46
1379.64	833.52
1380.01	868.34
1380.38	712.69
1380.76	636.92
1381.13	784.37
1381.51	819.19
1381.88	950.26
1382.25	792.56
1382.63	708.60
1383.00	837.62
1383.38	638.97
1383.75	712.69
1384.12	782.32
1384.50	813.04
1384.87	882.67
1385.24	706.55
1385.62	849.91
1385.99	753.65
1386.36	864.24
1386.74	608.25
1387.11	526.33
1387.49	792.56
1387.86	862.19
1388.23	997.36
1388.61	731.12
1388.98	692.21
1389.35	837.62
1389.73	454.65
1390.10	778.23
1390.47	618.49
1390.85	626.68
1391.22	632.82
1391.59	825.33
1391.96	970.74
1392.34	796.66
1392.71	923.63
1393.08	727.03
1393.46	899.06
1393.83	921.59
1394.20	696.31
1394.58	786.42
1394.95	636.92
1395.32	735.22
1395.70	718.84
1396.07	479.22
1396.44	874.48
1396.81	794.61
1397.19	612.34
1397.56	612.34
1397.93	780.28
1398.30	833.52
1398.68	749.56
1399.05	915.44
1399.42	782.32
1399.80	694.26
1400.17	763.89
1400.54	690.17
1400.91	843.76
1401.29	702.45
1401.66	788.47
1402.03	696.31
1402.40	714.74
1402.78	692.21
1403.15	686.07
1403.52	747.51
1403.89	753.65
1404.26	757.75
1404.64	1073.14
1405.01	747.51
1405.38	845.81
1405.75	868.34
1406.13	933.87
1406.50	718.84
1406.87	643.06
1407.24	761.84
1407.61	765.94
1407.99	503.80
1408.36	641.01
1408.73	573.43
1409.10	473.08
1409.47	733.17
1409.85	811.00
1410.22	792.56
1410.59	583.67
1410.96	870.39
1411.33	1290.22
1411.70	700.41
1412.08	782.32
1412.45	667.64
1412.82	841.72
1413.19	651.25
1413.56	731.12
1413.93	755.70
1414.31	718.84
1414.68	591.86
1415.05	522.23
1415.42	679.93
1415.79	677.88
1416.16	745.46
1416.54	636.92
1416.91	851.95
1417.28	794.61
1417.65	767.99
1418.02	593.91
1418.39	618.49
1418.76	540.66
1419.13	495.61
1419.51	536.57
1419.88	671.73
1420.25	610.29
1420.62	727.03
1420.99	851.96
1421.36	651.25
1421.73	643.06
1422.10	581.62
1422.47	589.81
1422.85	612.34
1423.22	575.48
1423.59	825.33
1423.96	767.99
1424.33	516.09
1424.70	620.53
1425.07	448.51
1425.44	503.80
1425.81	624.63
1426.18	751.60
1426.55	446.46
1426.92	737.27
1427.29	815.09
1427.67	628.73
1428.04	679.93
1428.41	700.41
1428.78	638.97
1429.15	686.07
1429.52	686.07
1429.89	831.48
1430.26	464.89
1430.63	546.81
1431.00	755.70
1431.37	745.46
1431.74	583.67
1432.11	710.65
1432.48	815.09
1432.85	602.10
1433.22	577.53
1433.59	710.65
1433.96	460.79
1434.33	595.96
1434.70	796.66
1435.07	317.44
1435.44	720.89
1435.81	608.25
1436.18	634.87
1436.55	436.22
1436.92	675.83
1437.29	702.45
1437.66	667.64
1438.03	587.77
1438.40	505.85
1438.77	651.25
1439.14	772.08
1439.51	493.56
1439.88	763.89
1440.25	696.31
1440.62	806.90
1440.99	600.05
1441.36	536.57
1441.73	516.09
1442.10	591.86
1442.47	507.90
1442.84	653.30
1443.21	407.55
1443.58	743.41
1443.95	811.00
1444.32	638.97
1444.68	528.38
1445.05	626.68
1445.42	520.18
1445.79	649.21
1446.16	593.91
1446.53	856.05
1446.90	544.76
1447.27	651.25
1447.64	608.25
1448.01	565.24
1448.38	675.83
1448.75	446.46
1449.12	524.28
1449.48	417.79
1449.85	542.71
1450.22	434.17
1450.59	600.05
1450.96	630.77
1451.33	528.38
1451.70	397.31
1452.07	665.59
1452.44	636.92
1452.80	542.71
1453.17	448.51
1453.54	729.08
1453.91	841.72
1454.28	432.12
1454.65	620.53
1455.02	446.46
1455.39	301.05
1455.75	471.03
1456.12	399.35
1456.49	477.18
1456.86	327.67
1457.23	307.20
1457.60	421.88
1457.96	694.26
1458.33	495.61
1458.70	542.71
1459.07	454.65
1459.44	516.09
1459.81	493.56
1460.17	325.63
1460.54	559.10
1460.91	677.88
1461.28	511.99
1461.65	555.00
1462.02	286.72
1462.38	542.71
1462.75	325.63
1463.12	434.17
1463.49	604.15
1463.86	409.59
1464.22	483.32
1464.59	606.20
1464.96	221.18
1465.33	450.55
1465.70	589.81
1466.06	403.45
1466.43	366.59
1466.80	624.63
1467.17	595.96
1467.53	477.18
1467.90	380.92
1468.27	475.13
1468.64	509.94
1469.01	458.74
1469.37	440.31
1469.74	534.52
1470.11	393.21
1470.48	565.24
1470.84	366.59
1471.21	288.76
1471.58	454.65
1471.95	430.07
1472.31	1009.65
1472.68	200.70
1473.05	550.90
1473.41	317.44
1473.78	464.89
1474.15	454.65
1474.52	493.56
1474.88	370.68
1475.25	495.61
1475.62	571.38
1475.99	507.90
1476.35	292.86
1476.72	571.38
1477.09	507.90
1477.45	458.74
1477.82	448.51
1478.19	376.83
1478.55	385.02
1478.92	565.24
1479.29	567.29
1479.66	305.15
1480.02	536.57
1480.39	393.21
1480.76	331.77
1481.12	333.82
1481.49	290.81
1481.86	348.15
1482.22	206.84
1482.59	382.97
1482.96	790.52
1483.32	190.46
1483.69	344.06
1484.06	475.13
1484.42	376.83
1484.79	399.35
1485.15	438.27
1485.52	444.41
1485.89	444.41
1486.25	331.77
1486.62	421.88
1486.99	325.63
1487.35	288.76
1487.72	344.06
1488.09	337.91
1488.45	219.13
1488.82	518.14
1489.18	317.44
1489.55	282.62
1489.92	346.11
1490.28	249.85
1490.65	303.10
1491.01	530.42
1491.38	387.07
1491.75	428.03
1492.11	342.01
1492.48	241.66
1492.84	534.52
1493.21	583.67
1493.58	352.25
1493.94	389.11
1494.31	458.74
1494.67	438.27
1495.04	413.69
1495.40	616.44
1495.77	632.82
1496.14	456.70
1496.50	323.58
1496.87	641.01
1497.23	382.97
1497.60	511.99
1497.96	256.00
1498.33	460.79
1498.70	423.93
1499.06	276.48
1499.43	253.95
1499.79	327.68
1500.16	372.73
1500.52	339.96
1500.89	198.65
1501.25	342.01
1501.62	276.48
1501.98	364.54
1502.35	266.24
1502.71	387.07
1503.08	268.28
1503.44	538.62
1503.81	442.36
1504.17	303.10
1504.54	200.70
1504.90	413.69
1505.27	256.00
1505.63	231.42
1506.00	362.49
1506.36	231.42
1506.73	557.05
1507.09	407.55
1507.46	368.63
1507.82	436.22
1508.19	323.58
1508.55	342.01
1508.92	114.69
1509.28	419.83
1509.65	417.79
1510.01	284.67
1510.38	317.44
1510.74	196.60
1511.11	294.91
1511.47	276.48
1511.83	288.76
1512.20	172.03
1512.56	284.67
1512.93	395.26
1513.29	292.86
1513.66	217.08
1514.02	333.82
1514.39	305.15
1514.75	-12.29
1515.11	387.07
1515.48	417.79
1515.84	167.93
1516.21	307.20
1516.57	372.73
1516.94	321.53
1517.30	708.60
1517.66	290.81
1518.03	61.44
1518.39	382.97
1518.76	317.44
1519.12	167.93
1519.48	264.19
1519.85	309.24
1520.21	366.59
1520.58	344.06
1520.94	180.22
1521.30	186.37
1521.67	77.82
1522.03	258.04
1522.39	286.72
1522.76	362.49
1523.12	352.25
1523.49	249.85
1523.85	75.77
1524.21	466.94
1524.58	147.45
1524.94	358.39
1525.30	129.02
1525.67	229.37
1526.03	284.67
1526.39	354.30
1526.76	165.89
1527.12	114.69
1527.48	77.82
1527.85	190.46
1528.21	90.11
1528.57	364.54
1528.94	280.57
1529.30	217.08
1529.66	262.14
1530.03	137.21
1530.39	180.22
1530.75	325.63
1531.12	90.11
1531.48	352.25
1531.84	-129.02
1532.21	122.88
1532.57	266.24
1532.93	264.19
1533.29	260.09
1533.66	198.65
1534.02	-2852.82
1534.38	40.96
1534.75	276.48
1535.11	253.95
1535.47	98.30
1535.83	98.30
1536.20	176.13
1536.56	141.31
1536.92	286.72
1537.28	147.45
1537.65	346.11
1538.01	235.52
1538.37	157.69
1538.74	163.84
1539.10	192.51
1539.46	800.76
1539.82	114.69
1540.19	487.42
1540.55	65.53
1540.91	135.17
1541.27	227.32
1541.63	172.03
1542.00	198.65
1542.36	278.52
1542.72	40.96
1543.08	403.45
1543.45	151.55
1543.81	174.08
1544.17	-12.29
1544.53	462.84
1544.89	73.73
1545.26	206.84
1545.62	247.80
1545.98	182.27
1546.34	190.46
1546.70	104.45
1547.07	339.96
1547.43	36.86
1547.79	141.31
1548.15	247.80
1548.51	354.30
1548.88	-24.58
1549.24	-149.50
1549.60	169.98
1549.96	61.44
1550.32	122.88
1550.68	210.94
1551.05	131.07
1551.41	372.73
1551.77	303.10
1552.13	149.50
1552.49	301.05
1552.85	155.65
1553.22	200.70
1553.58	65.53
1553.94	92.16
1554.30	290.81
1554.66	315.39
1555.02	301.05
1555.38	112.64
1555.75	120.83
1556.11	208.89
1556.47	163.84
1556.83	57.34
1557.19	188.41
1557.55	307.20
1557.91	321.53
1558.27	186.37
1558.63	245.76
1559.00	53.25
1559.36	176.13
1559.72	67.58
1560.08	202.75
1560.44	71.68
1560.80	22.53
1561.16	595.96
1561.52	-18.43
1561.88	26.62
1562.24	129.02
1562.60	96.25
1562.97	251.90
1563.33	-14.34
1563.69	67.58
1564.05	176.13
1564.41	161.79
1564.77	77.82
1565.13	-55.30
1565.49	110.59
1565.85	339.96
1566.21	270.33
1566.57	-100.35
1566.93	22.53
1567.29	26.62
1567.65	446.46
1568.01	243.71
1568.37	231.42
1568.73	18.43
1569.09	73.73
1569.45	-26.62
1569.82	280.57
1570.18	284.67
1570.54	-1173.49
1570.90	135.17
1571.26	86.01
1571.62	102.40
1571.98	172.03
1572.34	-77.82
1572.70	129.02
1573.06	28.67
1573.42	-28.67
1573.78	-16.38
1574.14	262.14
1574.50	-32.77
1574.86	157.69
1575.22	100.35
1575.58	-43.01
1575.94	206.84
1576.30	344.06
1576.66	71.68
1577.01	348.15
1577.37	67.58
1577.73	235.52
1578.09	0.00
1578.45	40.96
1578.81	176.13
1579.17	301.05
1579.53	215.04
1579.89	227.32
1580.25	59.39
1580.61	178.17
1580.97	-34.82
1581.33	-30.72
1581.69	-36.86
1582.05	186.37
1582.41	-98.30
1582.77	106.49
1583.13	-34.82
1583.49	2.05
1583.84	141.31
1584.20	239.61
1584.56	151.55
1584.92	-32.77
1585.28	239.61
1585.64	192.51
1586.00	116.73
1586.36	-116.73
1586.72	104.45
1587.08	36.86
1587.44	20.48
1587.79	20.48
1588.15	131.07
1588.51	120.83
1588.87	30.72
1589.23	10.24
1589.59	118.78
1589.95	47.10
1590.31	-14.34
1590.66	-53.25
1591.02	104.45
1591.38	131.07
1591.74	77.82
1592.10	348.15
1592.46	40.96
1592.82	79.87
1593.18	108.54
1593.53	-112.64
1593.89	200.70
1594.25	137.21
1594.61	278.52
1594.97	100.35
1595.33	-22.53
1595.68	120.83
1596.04	176.13
1596.40	286.72
1596.76	83.97
1597.12	-10.24
1597.48	-26.62
1597.83	-30.72
1598.19	-28.67
1598.55	-126.97
1598.91	-34.82
1599.27	-16.38
1599.62	114.69
1599.98	180.22
1600.34	165.89
1600.70	-182.27
1601.06	-73.73
1601.41	-16.38
1601.77	-90.11
1602.13	247.80
1602.49	247.80
1602.85	221.18
1603.20	311.29
1603.56	40.96
1603.92	-73.73
1604.28	174.08
1604.63	135.17
1604.99	849.91
1605.35	-63.49
1605.71	141.31
1606.06	-38.91
1606.42	190.46
1606.78	28.67
1607.14	176.13
1607.49	262.14
1607.85	100.35
1608.21	104.45
1608.57	200.70
1608.92	69.63
1609.28	81.92
1609.64	-32.77
1610.00	272.38
1610.35	194.56
1610.71	110.59
1611.07	151.55
1611.43	-169.98
1611.78	-57.34
1612.14	73.73
1612.50	28.67
1612.85	81.92
1613.21	131.07
1613.57	129.02
1613.92	-20.48
1614.28	-22.53
1614.64	122.88
1615.00	112.64
1615.35	-2.05
1615.71	45.06
1616.07	-18.43
1616.42	45.06
1616.78	135.17
1617.14	-45.06
1617.49	260.09
1617.85	217.08
1618.21	212.99
1618.56	227.32
1618.92	167.93
1619.28	131.07
1619.63	212.99
1619.99	-100.35
1620.35	190.46
1620.70	4.10
1621.06	51.20
1621.42	8.19
1621.77	-215.04
1622.13	225.28
1622.48	182.27
1622.84	57.34
1623.20	86.01
1623.55	204.80
1623.91	45.06
1624.27	241.66
1624.62	-88.06
1624.98	26.62
1625.33	172.03
1625.69	116.73
1626.05	206.84
1626.40	114.69
1626.76	225.28
1627.11	278.52
1627.47	55.30
1627.83	137.21
1628.18	-14.34
1628.54	57.34
1628.89	145.41
1629.25	-157.69
1629.61	-28.67
1629.96	292.86
1630.32	51.20
1630.67	116.73
1631.03	-55.30
1631.38	178.17
1631.74	112.64
1632.10	235.52
1632.45	6.14
1632.81	-733.17
1633.16	61.44
1633.52	16.38
1633.87	-14.34
1634.23	-143.36
1634.58	30.72
1634.94	16.38
1635.30	139.26
1635.65	100.35
1636.01	90.11
1636.36	223.23
1636.72	18.43
1637.07	-6.14
1637.43	79.87
1637.78	16.38
1638.14	104.45
1638.49	-102.40
1638.85	-14.34
1639.20	-83.97
1639.56	208.89
1639.91	-47.10
1640.27	59.39
1640.62	-133.12
1640.98	-223.23
1641.33	6.14
1641.69	32.77
1642.04	75.77
1642.40	-231.42
1642.75	178.17
1643.11	165.89
1643.46	24.58
1643.82	145.41
1644.17	0.00
1644.53	-161.79
1644.88	94.21
1645.24	102.40
1645.59	-14.34
1645.94	51.20
1646.30	-55.30
1646.65	-153.60
1647.01	-40.96
1647.36	116.73
1647.72	36.86
1648.07	-69.63
1648.43	57.34
1648.78	77.82
1649.14	-6.14
1649.49	94.21
1649.84	137.21
1650.20	-190.46
1650.55	182.27
1650.91	63.49
1651.26	161.79
1651.61	122.88
1651.97	-131.07
1652.32	77.82
1652.68	165.89
1653.03	-90.11
1653.39	-92.16
1653.74	-22.53
1654.09	28.67
1654.45	-55.30
1654.80	129.02
1655.16	106.49
1655.51	-104.45
1655.86	122.88
1656.22	-47.10
1656.57	149.50
1656.92	251.90
1657.28	-81.92
1657.63	-14.34
1657.99	65.53
1658.34	157.69
1658.69	219.13
1659.05	129.02
1659.40	-24.58
1659.75	10.24
1660.11	32.77
1660.46	30.72
1660.81	69.63
1661.17	-43.01
1661.52	-92.16
1661.87	-86.01
1662.23	4.10
1662.58	-102.40
1662.93	-88.06
1663.29	102.40
1663.64	-4.10
1663.99	-260.09
1664.35	-65.53
1664.70	38.91
1665.05	24.58
1665.41	-43.01
1665.76	-30.72
1666.11	202.75
1666.47	186.37
1666.82	139.26
1667.17	30.72
1667.52	165.89
1667.88	186.37
1668.23	-30.72
1668.58	-110.59
1668.94	-90.11
1669.29	100.35
1669.64	-83.97
1670.00	229.37
1670.35	122.88
1670.70	-49.15
1671.05	0.00
1671.41	-53.25
1671.76	237.56
1672.11	563.19
1672.46	30.72
1672.82	-59.39
1673.17	223.23
1673.52	124.93
1673.87	-51.20
1674.23	-22.53
1674.58	120.83
1674.93	-26.62
1675.28	-53.25
1675.64	18.43
1675.99	67.58
1676.34	288.76
1676.69	-120.83
1677.05	-106.49
1677.40	36.86
1677.75	-159.74
1678.10	-14.34
1678.45	59.39
1678.81	16.38
1679.16	135.17
1679.51	139.26
1679.86	86.01
1680.21	-102.40
1680.57	36.86
1680.92	116.73
1681.27	169.98
1681.62	16.38
1681.97	-100.35
1682.33	65.53
1682.68	102.40
1683.03	122.88
1683.38	-20.48
1683.73	104.45
1684.08	286.72
1684.44	153.60
1684.79	-67.58
1685.14	169.98
1685.49	59.39
1685.84	-184.32
1686.19	147.45
1686.55	180.22
1686.90	86.01
1687.25	14.34
1687.60	186.37
1687.95	-98.30
1688.30	-98.30
1688.65	307.20
1689.01	256.00
1689.36	-16.38
1689.71	2.05
1690.06	-178.17
1690.41	-32.77
1690.76	67.58
1691.11	92.16
1691.46	-32.77
1691.82	45.06
1692.17	8.19
1692.52	-290.81
1692.87	51.20
1693.22	-81.92
1693.57	59.39
1693.92	145.41
1694.27	65.53
1694.62	141.31
1694.97	120.83
1695.33	-139.26
1695.68	30.72
1696.03	-135.17
1696.38	278.52
1696.73	284.67
1697.08	229.37
1697.43	104.45
1697.78	-192.51
1698.13	-83.97
1698.48	45.06
1698.83	-18.43
1699.18	112.64
1699.53	36.86
1699.88	350.20
1700.24	-83.97
1700.59	-292.86
1700.94	186.37
1701.29	-59.39
1701.64	63.49
1701.99	71.68
1702.34	184.32
1702.69	172.03
1703.04	22.53
1703.39	57.34
1703.74	16.38
1704.09	-129.02
1704.44	-188.41
1704.79	49.15
1705.14	-73.73
1705.49	124.93
1705.84	108.54
1706.19	-45.06
1706.54	22.53
1706.89	-69.63
1707.24	-65.54
1707.59	86.01
1707.94	47.10
1708.29	118.78
1708.64	278.52
1708.99	8.19
1709.34	2.05
1709.69	139.26
1710.04	176.13
1710.39	-36.86
1710.74	143.36
1711.09	8.19
1711.44	26.62
1711.79	38.91
1712.14	10.24
1712.49	196.60
1712.84	65.53
1713.18	-174.08
1713.53	122.88
1713.88	59.39
1714.23	2.05
1714.58	282.62
1714.93	-6.14
1715.28	-79.87
1715.63	-14.34
1715.98	200.70
1716.33	-8.19
1716.68	34.82
1717.03	305.15
1717.38	-90.11
1717.73	22.53
1718.08	38.91
1718.42	-6.14
1718.77	6.14
1719.12	-96.25
1719.47	-186.37
1719.82	221.18
1720.17	149.50
1720.52	-313.34
1720.87	-81.92
1721.22	-102.40
1721.57	-153.60
1721.91	-81.92
1722.26	229.37
1722.61	83.97
1722.96	-57.34
1723.31	8.19
1723.66	-43.01
1724.01	16.38
1724.36	215.04
1724.70	-38.91
1725.05	-16.38
1725.40	-20.48
1725.75	49.15
1726.10	57.34
1726.45	38.91
1726.80	-77.82
1727.14	-6.14
1727.49	-71.68
1727.84	26.62
1728.19	188.41
1728.54	100.35
1728.89	-12.29
1729.23	10.24
1729.58	178.17
1729.93	53.25
1730.28	-83.97
1730.63	-4.10
1730.97	-73.73
1731.32	61.44
1731.67	40.96
1732.02	69.63
1732.37	12.29
1732.72	-63.49
1733.06	245.76
1733.41	217.08
1733.76	47.10
1734.11	77.82
1734.46	-16.38
1734.80	79.87
1735.15	65.53
1735.50	184.32
1735.85	182.27
1736.19	24.58
1736.54	2.05
>>>>>End Processed Spectral Data<<<<<
