SpectraSuite Data File
++++++++++++++++++++++++++++++++++++
Date: Tue Feb 05 15:07:53 EET 2019
User: demo
Dark Spectrum Present: Yes
Reference Spectrum Present: Yes
Number of Sampled Component Spectra: 1
Spectrometers: USB4H03366
Integration Time (usec): 20000000 (USB4H03366)
Spectra Averaged: 1 (USB4H03366)
Boxcar Smoothing: 0 (USB4H03366)
Correct for Electrical Dark: No (USB4H03366)
Strobe/Lamp Enabled: No (USB4H03366)
Correct for Detector Non-linearity: No (USB4H03366)
Correct for Stray Light: No (USB4H03366)
Number of Pixels in Processed Spectrum: 3648
>>>>>Begin Processed Spectral Data<<<<<
291.48	16.38
291.93	16.38
292.37	16.38
292.82	-18.43
293.26	14.34
293.70	8.19
294.15	147.45
294.59	100.35
295.04	143.36
295.48	-69.63
295.93	-239.61
296.37	-169.98
296.82	-167.93
297.26	159.74
297.71	96.25
298.15	118.78
298.59	-137.21
299.04	-26.62
299.48	-63.49
299.93	169.98
300.37	344.06
300.82	98.30
301.26	176.13
301.70	-75.77
302.15	-36.86
302.59	8.19
303.04	-114.69
303.48	83.97
303.92	30.72
304.37	-133.12
304.81	288.76
305.26	839.67
305.70	339.96
306.14	194.56
306.59	-14.34
307.03	194.56
307.47	174.08
307.92	67.58
308.36	225.28
308.81	-32.77
309.25	57.34
309.69	208.89
310.14	-10.24
310.58	143.36
311.02	24.58
311.47	118.78
311.91	-172.03
312.36	102.40
312.80	4.10
313.24	-4.10
313.69	-61.44
314.13	20.48
314.57	200.70
315.02	94.21
315.46	18.43
315.90	4.10
316.35	83.97
316.79	339.96
317.23	147.45
317.68	323.58
318.12	137.21
318.56	92.16
319.00	77.82
319.45	-24.58
319.89	-75.77
320.33	90.11
320.78	428.03
321.22	47.10
321.66	-36.86
322.11	102.40
322.55	417.79
322.99	-145.41
323.43	210.94
323.88	120.83
324.32	83.97
324.76	135.17
325.21	24.58
325.65	6.14
326.09	202.75
326.53	143.36
326.98	169.98
327.42	20.48
327.86	124.93
328.30	4.10
328.75	-6.14
329.19	133.12
329.63	86.01
330.07	661.49
330.52	202.75
330.96	90.11
331.40	212.99
331.84	38.91
332.29	104.45
332.73	12.29
333.17	-147.45
333.61	96.25
334.05	239.61
334.50	108.54
334.94	51.20
335.38	194.56
335.82	167.93
336.27	182.27
336.71	153.60
337.15	145.41
337.59	178.17
338.03	-40.96
338.47	196.60
338.92	-53.25
339.36	90.11
339.80	124.93
340.24	12.29
340.68	-176.13
341.13	16.38
341.57	81.92
342.01	241.66
342.45	-73.73
342.89	-6.14
343.33	8.19
343.78	-4.10
344.22	192.51
344.66	104.45
345.10	45.06
345.54	282.62
345.98	90.11
346.43	182.27
346.87	172.03
347.31	69.63
347.75	167.93
348.19	38.91
348.63	98.30
349.07	75.77
349.51	30.72
349.96	468.98
350.40	2.05
350.84	176.13
351.28	167.93
351.72	346.11
352.16	75.77
352.60	231.42
353.04	169.98
353.49	8.19
353.93	100.35
354.37	159.74
354.81	-73.73
355.25	223.23
355.69	12.29
356.13	-67.58
356.57	159.74
357.01	153.60
357.45	22.53
357.89	247.80
358.33	251.90
358.78	26.62
359.22	12.29
359.66	-102.40
360.10	36.86
360.54	221.18
360.98	110.59
361.42	-63.49
361.86	71.68
362.30	79.87
362.74	-49.15
363.18	192.51
363.62	129.02
364.06	98.30
364.50	-10.24
364.94	149.50
365.38	268.28
365.82	-63.49
366.26	51.20
366.70	276.48
367.14	-243.71
367.58	280.57
368.02	38.91
368.46	309.24
368.90	221.18
369.34	-71.68
369.78	147.45
370.22	147.45
370.66	284.67
371.10	176.13
371.54	57.34
371.98	98.30
372.42	71.68
372.86	-79.87
373.30	311.29
373.74	198.65
374.18	110.59
374.62	59.39
375.06	24.58
375.50	319.48
375.94	204.80
376.38	196.61
376.82	208.89
377.26	198.65
377.70	188.41
378.14	143.36
378.58	-143.36
379.02	270.33
379.46	34.82
379.90	366.59
380.34	192.51
380.78	106.49
381.22	102.40
381.66	86.01
382.10	165.89
382.53	-26.62
382.97	186.37
383.41	120.83
383.85	196.61
384.29	362.49
384.73	110.59
385.17	235.52
385.61	319.48
386.05	192.51
386.49	122.88
386.93	8.19
387.36	157.69
387.80	28.67
388.24	147.45
388.68	24.58
389.12	143.36
389.56	-63.49
390.00	333.82
390.44	110.59
390.88	83.97
391.31	126.97
391.75	184.32
392.19	243.71
392.63	243.71
393.07	-2359.26
393.51	292.86
393.95	22.53
394.39	47.10
394.82	118.78
395.26	34.82
395.70	157.69
396.14	274.43
396.58	112.64
397.02	159.74
397.45	249.85
397.89	163.84
398.33	231.42
398.77	169.98
399.21	417.79
399.65	585.72
400.08	477.18
400.52	389.11
400.96	241.66
401.40	417.79
401.84	192.51
402.27	147.45
402.71	358.39
403.15	342.01
403.59	241.66
404.03	483.32
404.46	362.49
404.90	102.40
405.34	645.11
405.78	368.63
406.22	315.39
406.65	509.94
407.09	387.07
407.53	559.10
407.97	411.64
408.40	638.97
408.84	514.04
409.28	581.62
409.72	606.20
410.16	380.92
410.59	403.45
411.03	333.82
411.47	499.70
411.91	698.36
412.34	557.05
412.78	561.14
413.22	745.46
413.66	649.21
414.09	673.78
414.53	708.60
414.97	759.80
415.40	698.36
415.84	675.83
416.28	796.66
416.72	514.04
417.15	516.09
417.59	612.34
418.03	829.43
418.46	915.44
418.90	731.12
419.34	722.93
419.78	686.07
420.21	950.26
420.65	577.53
421.09	802.80
421.52	915.44
421.96	739.32
422.40	935.92
422.83	808.95
423.27	802.80
423.71	1026.03
424.14	909.30
424.58	989.17
425.02	839.67
425.45	851.95
425.89	940.02
426.33	813.04
426.76	884.72
427.20	915.44
427.64	978.93
428.07	921.59
428.51	598.01
428.95	1128.43
429.38	1075.18
429.82	876.53
430.26	1046.51
430.69	1185.77
431.13	1077.23
431.57	1200.11
432.00	1187.82
432.44	1306.60
432.87	1234.93
433.31	1173.49
433.75	1181.68
434.18	1140.72
434.62	1212.40
435.05	1112.05
435.49	1294.32
435.93	1042.42
436.36	1320.94
436.80	1056.75
437.23	1157.10
437.67	1120.24
438.11	1320.94
438.54	1349.61
438.98	1206.25
439.41	1384.43
439.85	1216.49
440.29	1347.56
440.72	1144.81
441.16	1406.95
441.59	1069.04
442.03	1251.31
442.46	1374.19
442.90	1196.01
443.34	1396.71
443.77	1290.22
444.21	1372.14
444.64	1533.93
445.08	1425.39
445.51	1394.67
445.95	1433.58
446.38	1570.79
446.82	1447.91
447.25	1378.28
447.69	1513.45
448.13	1400.81
448.56	1409.00
449.00	3796.93
449.43	1230.83
449.87	1394.67
450.30	1413.10
450.74	1542.12
451.17	1327.08
451.61	1550.31
452.04	1335.28
452.48	1675.24
452.91	1583.08
453.35	1495.02
453.78	1746.92
454.22	1535.98
454.65	1619.94
455.09	1714.15
455.52	1683.43
455.96	1607.66
456.39	1703.91
456.83	1894.37
457.26	1587.18
457.69	1724.39
458.13	1765.35
458.56	1920.99
459.00	1632.23
459.43	1779.68
459.87	1781.73
460.30	2086.88
460.74	2052.06
461.17	1923.04
461.61	2226.14
462.04	2150.37
462.47	2121.70
462.91	2181.09
463.34	2123.74
463.78	2127.84
464.21	2103.26
464.65	2142.18
465.08	2088.93
465.51	2430.94
465.95	2185.18
466.38	2326.49
466.82	2312.16
467.25	2615.26
467.69	2576.34
468.12	2510.81
468.55	2635.74
468.99	2420.70
469.42	2684.89
469.86	2699.22
470.29	2873.30
470.72	2600.92
471.16	2635.74
471.59	2891.73
472.03	3014.61
472.46	2955.22
472.89	3051.47
473.33	3123.15
473.76	3284.94
474.19	2897.88
474.63	3065.81
475.06	3549.13
475.49	3342.28
475.93	3704.78
476.36	3397.58
476.80	3696.58
477.23	3786.69
477.66	3829.70
478.10	3887.04
478.53	4022.21
478.96	4108.23
479.40	3919.81
479.83	4394.94
480.26	3024.85
480.70	4476.86
481.13	4730.81
481.56	4577.21
482.00	4265.92
482.43	4982.71
482.86	4534.20
483.30	4730.81
483.73	4607.93
484.16	5095.35
484.59	4792.25
485.03	5418.93
485.46	5570.47
485.89	5455.79
486.33	5797.80
486.76	5674.92
487.19	5803.94
487.63	5828.52
488.06	5900.20
488.49	6012.84
488.92	5791.66
489.36	6625.18
489.79	5795.75
490.22	6401.95
490.65	6295.46
491.09	6817.69
491.52	7020.44
491.95	7268.24
492.38	7225.23
492.82	7427.98
493.25	7485.33
493.68	7321.49
494.11	7638.92
494.55	7792.52
494.98	7841.67
495.41	7923.59
495.84	8083.33
496.28	8005.51
496.71	8425.34
497.14	8374.14
497.57	9013.11
498.01	8417.15
498.44	8738.68
498.87	8914.81
499.30	9146.23
499.73	8937.34
500.17	9312.11
500.60	9578.35
501.03	9367.41
501.46	9676.65
501.89	9754.48
502.33	9879.40
502.76	10121.06
503.19	10252.13
503.62	10631.01
504.05	10776.41
504.49	10819.42
504.92	10768.22
505.35	11507.54
505.78	10714.97
506.21	11335.51
506.64	11755.34
507.08	11556.69
507.51	12040.01
507.94	11958.09
508.37	12068.68
508.80	12980.03
509.23	12769.09
509.67	12611.39
510.10	13381.43
510.53	13877.04
510.96	13856.56
511.39	13125.43
511.82	13854.51
512.25	14382.88
512.69	14292.77
513.12	14505.76
513.55	15294.23
513.98	15136.54
514.41	15537.94
514.84	15761.17
515.27	15701.78
515.70	16033.55
516.14	16199.43
516.57	16678.66
517.00	16508.68
517.43	16711.43
517.86	17297.14
518.29	16606.98
518.72	17352.44
519.15	18140.91
519.58	17977.07
520.01	18173.67
520.45	18589.41
520.88	18700.00
521.31	18773.73
521.74	19408.60
522.17	19517.14
522.60	19533.53
523.03	19613.40
523.46	19537.62
523.89	20356.81
524.32	20844.23
524.75	21356.22
525.18	21014.21
525.61	21165.76
526.04	21489.34
526.47	21409.47
526.90	21685.94
527.33	21817.01
527.77	22574.76
528.20	22714.02
528.63	22470.31
529.06	22818.47
529.49	22419.11
529.92	23459.48
530.35	23697.05
530.78	23488.15
531.21	24131.22
531.64	23424.67
532.07	24032.91
532.50	24530.57
532.93	24139.41
533.36	24694.41
533.79	25001.60
534.22	25261.69
534.65	25427.58
535.08	26044.02
535.51	25906.80
535.94	25278.08
536.37	25337.47
536.80	26601.07
537.23	25706.10
537.66	26334.83
538.09	25648.76
538.52	26478.19
538.95	25564.79
539.38	26674.79
539.81	26340.97
540.24	26613.35
540.66	25407.10
541.09	27088.48
541.52	27410.01
541.95	27313.76
542.38	27383.39
542.81	27512.41
543.24	27410.01
543.67	28163.67
544.10	27088.48
544.53	27377.25
544.96	26926.69
545.39	27704.92
545.82	27147.87
546.25	26787.43
546.68	27313.76
547.11	27324.00
547.53	27491.93
547.96	27516.51
548.39	26642.03
548.82	27455.07
549.25	26961.51
549.68	27909.72
550.11	27465.31
550.54	27805.27
550.97	27256.42
551.40	27401.82
551.82	27514.46
552.25	27391.58
552.68	26480.24
553.11	26916.45
553.54	27604.57
553.97	27461.21
554.40	27033.19
554.83	27924.05
555.26	27342.43
555.68	27612.76
556.11	27567.71
556.54	27631.19
556.97	26590.83
557.40	26883.69
557.83	26969.70
558.26	27874.90
558.68	27151.97
559.11	27725.40
559.54	26979.94
559.97	27506.27
560.40	27504.22
560.83	27186.79
561.25	26080.88
561.68	27428.45
562.11	27379.29
562.54	26955.36
562.97	27119.20
563.40	26635.88
563.82	26990.18
564.25	26773.10
564.68	26437.23
565.11	26631.79
565.54	26719.85
565.96	27229.79
566.39	26689.13
566.82	27190.88
567.25	26797.67
567.68	26646.12
568.10	26793.58
568.53	26289.77
568.96	26701.42
569.39	26625.64
569.81	26435.18
570.24	25976.44
570.67	26308.21
571.10	26345.07
571.53	26091.12
571.95	26603.11
572.38	26416.75
572.81	26467.95
573.24	26687.08
573.66	26820.20
574.09	27170.40
574.52	26809.96
574.95	25753.21
575.37	26404.46
575.80	26293.87
576.23	25974.39
576.66	26097.27
577.08	26287.73
577.51	25517.69
577.94	25915.00
578.36	26410.61
578.79	26238.58
579.22	26146.42
579.65	26068.59
580.07	26107.51
580.50	24778.37
580.93	26629.74
581.36	26523.24
581.78	25890.42
582.21	25644.66
582.64	26218.10
583.06	26435.18
583.49	26240.62
583.92	26275.44
584.34	26846.82
584.77	26484.33
585.20	26308.21
585.62	26424.94
586.05	26386.03
586.48	26629.74
586.90	27012.71
587.33	26857.06
587.76	26814.05
588.18	26613.35
588.61	25777.78
589.04	26611.31
589.46	26668.65
589.89	26697.32
590.32	26095.22
590.74	26928.74
591.17	27625.05
591.60	26431.08
592.02	27618.91
592.45	27164.26
592.88	27381.34
593.30	27326.05
593.73	27872.85
594.15	26805.86
594.58	27700.83
595.01	27483.74
595.43	27606.62
595.86	27870.81
596.29	28313.17
596.71	28137.04
597.14	28132.95
597.56	28003.92
597.99	29148.74
598.42	28689.99
598.84	28974.66
599.27	29042.24
599.69	29722.17
600.12	29646.40
600.55	30082.61
600.97	29158.98
601.40	29898.30
601.82	29886.01
602.25	29621.82
602.67	29560.38
603.10	29580.86
603.53	30109.24
603.95	30277.17
604.38	29546.05
604.80	29814.33
605.23	30148.15
605.65	30754.35
606.08	30717.48
606.50	31077.93
606.93	29994.55
607.36	30893.61
607.78	31440.42
608.21	31639.07
608.63	32116.25
609.06	31907.35
609.48	31223.33
609.91	31827.48
610.33	30846.51
610.76	31606.30
611.18	31602.21
611.61	32421.39
612.03	32300.56
612.46	32065.05
612.88	31149.60
613.31	32112.15
613.73	29005.38
614.16	32134.68
614.58	32036.38
615.01	31585.82
615.43	32282.13
615.86	31991.32
616.28	31856.15
616.71	32208.40
617.13	32063.00
617.56	32284.18
617.98	31940.12
618.41	32388.63
618.83	32478.74
619.26	31766.04
619.68	32792.08
620.11	32501.26
620.53	32400.91
620.96	31995.42
621.38	32615.95
621.81	31802.91
622.23	32259.60
622.65	32384.53
623.08	32724.49
623.50	32239.12
623.93	31764.00
624.35	31995.42
624.78	32462.35
625.20	32173.59
625.62	32925.19
626.05	32984.58
626.47	33250.82
626.90	33089.03
627.32	32157.21
627.75	32050.71
628.17	31987.22
628.59	31710.75
629.02	31655.45
629.44	31624.73
629.87	31508.00
630.29	32329.23
630.71	28325.46
631.14	31213.09
631.56	32009.75
631.99	31673.88
632.41	31491.62
632.83	31555.10
633.26	31557.15
633.68	30938.66
634.11	31237.67
634.53	31569.44
634.95	31962.65
635.38	32063.00
635.80	31823.39
636.22	31086.12
636.65	31657.50
637.07	31919.64
637.49	31770.14
637.92	29539.90
638.34	31481.38
638.76	30584.37
639.19	31350.31
639.61	31239.72
640.04	31577.63
640.46	31417.89
640.88	30852.65
641.31	29980.21
641.73	30441.01
642.15	30354.99
642.57	30627.37
643.00	28001.88
643.42	30533.17
643.84	29847.10
644.27	29775.42
644.69	28253.78
645.11	29892.15
645.54	29001.29
645.96	29492.80
646.38	29404.74
646.81	29144.64
647.23	28636.75
647.65	28694.09
648.07	28481.10
648.50	28325.46
648.92	27713.11
649.34	26893.93
649.77	26887.78
650.19	27743.83
650.61	27321.95
651.03	27260.51
651.46	27790.94
651.88	27543.13
652.30	27510.36
652.72	26984.04
653.15	26426.99
653.57	27211.36
653.99	27938.39
654.41	27520.60
654.84	37168.58
655.26	26691.18
655.68	27145.83
656.10	27283.04
656.53	26906.21
656.95	26787.43
657.37	26541.68
657.79	26803.82
658.22	26625.64
658.64	26426.99
659.06	26478.19
659.48	25689.72
659.90	25958.00
660.33	25730.68
660.75	25478.78
661.17	24583.82
661.59	25556.60
662.02	25509.50
662.44	25118.34
662.86	25341.57
663.28	23877.27
663.70	24483.47
664.12	24776.33
664.55	24555.15
664.97	25017.99
665.39	24923.78
665.81	24442.51
666.23	24206.99
666.66	23525.02
667.08	23781.01
667.50	23580.31
667.92	23312.03
668.34	22353.58
668.76	23965.33
669.19	23152.29
669.61	23013.02
670.03	23160.48
670.45	22632.10
670.87	23096.99
671.29	21892.79
671.71	22089.39
672.14	22179.50
672.56	22152.88
672.98	21970.61
673.40	21909.17
673.82	21970.61
674.24	21976.75
674.66	21544.63
675.08	21378.75
675.51	21319.35
675.93	21458.62
676.35	21356.22
676.77	21046.97
677.19	20651.72
677.61	20647.62
678.03	20223.69
678.45	20231.88
678.87	19936.98
679.29	19398.36
679.72	19945.17
680.14	19420.89
680.56	19228.38
680.98	18851.55
681.40	19103.45
681.82	19322.59
682.24	18587.36
682.66	18724.58
683.08	18712.29
683.50	18984.67
683.92	18462.44
684.34	18849.50
684.76	18775.78
685.18	18683.62
685.61	18169.58
686.03	18022.12
686.45	17766.13
686.87	17968.88
687.29	17950.45
687.71	17719.03
688.13	17547.00
688.55	17102.59
688.97	16955.13
689.39	17561.33
689.81	17170.17
690.23	16938.75
690.65	17227.51
691.07	16600.83
691.49	16660.23
691.91	16035.60
692.33	16152.33
692.75	16324.36
693.17	16084.75
693.59	16011.02
694.01	15740.69
694.43	16109.32
694.85	15736.59
695.27	15742.74
695.69	15838.99
696.11	15619.86
696.53	15300.37
696.95	14135.08
697.37	15697.68
697.79	14370.60
698.21	14825.25
698.63	14991.13
699.05	14927.64
699.47	14704.42
699.89	13629.23
700.31	14149.42
700.73	14774.05
701.15	14579.49
701.57	14346.02
701.98	14505.76
702.40	14321.45
702.82	13885.23
703.24	13948.72
703.66	13463.35
704.08	14243.62
704.50	14034.73
704.92	13707.05
705.34	13629.23
705.76	13641.52
706.18	12775.23
706.60	13561.65
707.02	13279.03
707.44	13524.79
707.85	13084.47
708.27	13567.79
708.69	13063.99
709.11	13332.28
709.53	12937.02
709.95	12588.86
710.37	12746.56
710.79	12592.96
711.21	12427.07
711.63	12697.41
712.04	11953.99
712.46	11910.99
712.88	12074.82
713.30	11061.08
713.72	11820.88
714.14	11999.05
714.56	12058.44
714.98	11917.13
715.39	11532.11
715.81	11669.33
716.23	11538.26
716.65	11364.18
717.07	11220.82
717.49	10973.02
717.91	11214.68
718.32	11054.94
718.74	11040.60
719.16	10975.06
719.58	10729.31
720.00	10565.47
720.42	10596.19
720.83	10661.73
721.25	10340.19
721.67	10159.97
722.09	10104.68
722.51	9987.94
722.93	9891.69
723.34	9617.26
723.76	9488.24
724.18	9588.59
724.60	9111.41
725.02	9377.65
725.43	9060.21
725.85	9348.98
726.27	9113.46
726.69	9164.66
727.11	8548.22
727.52	9310.07
727.94	8998.77
728.36	8990.58
728.78	8808.31
729.19	8548.22
729.61	8660.86
730.03	8576.89
730.45	8466.30
730.87	8292.23
731.28	8085.38
731.70	8183.68
732.12	8144.77
732.54	8023.94
732.95	8107.91
733.37	7978.89
733.79	7874.44
734.21	7380.88
734.62	7735.18
735.04	7452.56
735.46	7610.25
735.87	7372.69
736.29	7554.96
736.71	7319.44
737.13	7587.72
737.54	7438.22
737.96	7200.66
738.38	7124.88
738.80	7151.51
739.21	7092.12
739.63	6979.48
740.05	7194.51
740.46	7321.49
740.88	6768.54
741.30	5101.49
741.71	6705.05
742.13	6750.10
742.55	6494.11
742.97	6668.19
743.38	6436.77
743.80	6418.33
744.22	6545.31
744.63	6379.42
745.05	5973.92
745.47	6193.06
745.88	6150.05
746.30	6162.34
746.72	6018.98
747.13	5668.78
747.55	5914.53
747.97	5560.24
748.38	5570.48
748.80	5377.97
749.22	5406.64
749.63	5451.69
750.05	5441.45
750.46	5203.89
750.88	5300.14
751.30	5050.29
751.71	4677.56
752.13	4992.95
752.55	4810.68
752.96	4890.55
753.38	4777.91
753.79	4759.48
754.21	4605.88
754.63	4480.96
755.04	4495.29
755.46	4458.43
755.88	4358.08
756.29	4421.56
756.71	4370.37
757.12	4014.02
757.54	4265.92
757.96	3987.40
758.37	3944.39
758.79	3925.96
759.20	3723.21
759.62	3919.81
760.03	3665.86
760.45	3680.20
760.87	3733.45
761.28	3655.62
761.70	3712.97
762.11	3522.51
762.53	3502.03
762.94	3397.58
763.36	3293.13
763.78	3063.76
764.19	3317.71
764.61	3117.01
765.02	3223.50
765.44	3215.31
765.85	3135.44
766.27	3184.59
766.68	3039.19
767.10	2990.03
767.51	2908.12
767.93	2846.68
768.34	2996.18
768.76	2959.31
769.18	2881.49
769.59	2645.98
770.01	2928.60
770.42	2875.35
770.84	2705.37
771.25	2648.02
771.67	2723.80
772.08	2512.86
772.50	2826.20
772.91	2519.00
773.33	2465.75
773.74	2668.50
774.16	2439.13
774.57	2519.00
774.99	2432.99
775.40	2254.81
775.81	3260.37
776.23	2457.56
776.64	2369.50
777.06	2320.35
777.47	2291.68
777.89	2394.08
778.30	2265.05
778.72	2324.44
779.13	1968.10
779.55	1939.43
779.96	2209.76
780.38	2043.87
780.79	1882.08
781.20	2150.37
781.62	2035.68
782.03	1947.62
782.45	1951.71
782.86	2258.91
783.28	1957.86
783.69	1798.12
784.10	1843.17
784.52	1976.29
784.93	1748.97
785.35	1929.19
785.76	1984.48
786.18	2142.18
786.59	1923.04
787.00	1765.35
787.42	1538.02
787.83	1806.31
788.25	1816.55
788.66	1630.18
789.07	1771.49
789.49	1802.21
789.90	1710.05
790.32	1724.39
790.73	1611.75
791.14	1597.42
791.56	1691.62
791.97	1505.26
792.38	1542.12
792.80	1650.66
793.21	1742.82
793.62	1409.00
794.04	1519.59
794.45	1591.27
794.87	1648.61
795.28	1722.34
795.69	1564.65
796.11	1294.32
796.52	1527.78
796.93	1269.74
797.35	1222.64
797.76	1159.15
798.17	1361.90
798.59	1243.12
799.00	1392.62
799.41	1167.34
799.83	1271.79
800.24	1230.83
800.65	1038.32
801.07	1026.03
801.48	956.40
801.89	2484.19
802.31	856.05
802.72	1159.15
803.13	794.61
803.54	886.77
803.96	884.72
804.37	780.28
804.78	753.65
805.20	800.76
805.61	720.88
806.02	602.10
806.43	542.71
806.85	794.61
807.26	772.08
807.67	432.12
808.09	264.19
808.50	528.38
808.91	405.50
809.32	679.93
809.74	655.35
810.15	366.59
810.56	473.08
810.97	511.99
811.39	344.06
811.80	466.94
812.21	428.03
812.62	440.31
813.04	487.42
813.45	509.94
813.86	262.14
814.27	417.79
814.68	135.17
815.10	440.31
815.51	352.25
815.92	376.83
816.33	231.42
816.75	272.38
817.16	405.50
817.57	425.98
817.98	337.91
818.39	399.35
818.81	319.48
819.22	67.58
819.63	368.63
820.04	212.99
820.45	274.43
820.87	100.35
821.28	245.76
821.69	245.76
822.10	403.45
822.51	169.98
822.92	94.21
823.34	133.12
823.75	452.60
824.16	-2678.74
824.57	30.72
824.98	466.94
825.39	495.61
825.81	370.68
826.22	243.71
826.63	311.29
827.04	110.59
827.45	284.67
827.86	327.68
828.28	405.50
828.69	229.37
829.10	307.20
829.51	411.64
829.92	317.44
830.33	178.17
830.74	147.45
831.15	-12.29
831.57	346.11
831.98	354.30
832.39	118.78
832.80	235.52
833.21	323.58
833.62	133.12
834.03	182.27
834.44	425.98
834.85	169.98
835.26	264.19
835.68	319.48
836.09	243.71
836.50	249.85
836.91	229.37
837.32	36.86
837.73	184.32
838.14	198.65
838.55	-12.29
838.96	81.92
839.37	159.74
839.78	122.88
840.19	280.57
840.60	239.61
841.02	129.02
841.43	241.66
841.84	274.43
842.25	-120.83
842.66	143.36
843.07	286.72
843.48	247.80
843.89	163.84
844.30	321.53
844.71	40.96
845.12	184.32
845.53	137.21
845.94	-77.82
846.35	241.66
846.76	14.34
847.17	249.85
847.58	344.06
847.99	182.27
848.40	8.19
848.81	292.86
849.22	149.50
849.63	14.34
850.04	194.56
850.45	186.37
850.86	75.77
851.27	288.76
851.68	333.82
852.09	-86.01
852.50	104.45
852.91	131.07
853.32	202.75
853.73	153.60
854.14	100.35
854.55	233.47
854.96	194.56
855.37	204.80
855.78	14.34
856.19	-8.19
856.60	309.24
857.01	151.55
857.42	292.86
857.83	239.61
858.24	294.91
858.64	-71.68
859.05	124.93
859.46	81.92
859.87	92.16
860.28	118.78
860.69	120.83
861.10	145.41
861.51	219.13
861.92	278.52
862.33	63.49
862.74	47.10
863.15	143.36
863.56	366.59
863.96	223.23
864.37	237.56
864.78	190.46
865.19	133.12
865.60	153.60
866.01	448.51
866.42	305.15
866.83	147.45
867.24	284.67
867.65	280.57
868.05	237.56
868.46	-423.93
868.87	331.77
869.28	225.28
869.69	198.65
870.10	964.59
870.51	178.17
870.92	245.76
871.32	292.86
871.73	245.76
872.14	223.23
872.55	309.24
872.96	151.55
873.37	364.54
873.77	346.11
874.18	143.36
874.59	387.07
875.00	507.90
875.41	415.74
875.82	319.48
876.22	184.32
876.63	475.13
877.04	284.67
877.45	137.21
877.86	169.98
878.27	172.03
878.67	354.30
879.08	124.93
879.49	196.61
879.90	376.83
880.31	393.21
880.71	352.25
881.12	264.19
881.53	516.09
881.94	176.13
882.35	264.19
882.75	229.37
883.16	49.15
883.57	446.46
883.98	81.92
884.38	223.23
884.79	196.60
885.20	290.81
885.61	212.99
886.02	-18.43
886.42	276.48
886.83	75.77
887.24	225.28
887.65	159.74
888.05	231.42
888.46	251.90
888.87	212.99
889.28	151.55
889.68	309.24
890.09	239.61
890.50	-26.62
890.91	96.25
891.31	329.72
891.72	208.89
892.13	327.67
892.53	0.00
892.94	346.11
893.35	-43.01
893.76	-2.05
894.16	321.53
894.57	16.38
894.98	169.98
895.38	116.73
895.79	-6.14
896.20	227.32
896.61	382.97
897.01	241.66
897.42	133.12
897.83	124.93
898.23	149.50
898.64	47.10
899.05	104.45
899.45	161.79
899.86	227.32
900.27	342.01
900.67	245.76
901.08	69.63
901.49	-45.06
901.89	-26.62
902.30	-24.58
902.71	180.22
903.11	153.60
903.52	180.22
903.93	151.55
904.33	124.93
904.74	288.76
905.15	-4.10
905.55	305.15
905.96	311.29
906.36	90.11
906.77	-22.53
907.18	-32.77
907.58	77.82
907.99	38.91
908.40	260.09
908.80	77.82
909.21	163.84
909.61	223.23
910.02	18.43
910.43	212.99
910.83	83.97
911.24	61.44
911.64	141.31
912.05	57.34
912.46	69.63
912.86	102.40
913.27	106.49
913.67	190.46
914.08	215.04
914.48	190.46
914.89	276.48
915.30	165.89
915.70	135.17
916.11	198.65
916.51	98.30
916.92	77.82
917.32	-79.87
917.73	212.99
918.14	235.52
918.54	86.01
918.95	8.19
919.35	-2.05
919.76	108.54
920.16	178.17
920.57	309.24
920.97	4.10
921.38	190.46
921.78	215.04
922.19	104.45
922.59	192.51
923.00	174.08
923.41	86.01
923.81	219.13
924.22	165.89
924.62	-47.10
925.03	233.47
925.43	282.62
925.84	45.06
926.24	28.67
926.65	32.77
927.05	229.37
927.46	-28.67
927.86	63.49
928.27	284.67
928.67	256.00
929.08	268.28
929.48	438.27
929.88	149.50
930.29	182.27
930.69	-26.62
931.10	198.65
931.50	32.77
931.91	229.37
932.31	-63.49
932.72	26.62
933.12	-61.44
933.53	200.70
933.93	110.59
934.34	69.63
934.74	167.93
935.14	118.78
935.55	237.56
935.95	208.89
936.36	92.16
936.76	-126.97
937.17	-86.01
937.57	296.96
937.97	135.17
938.38	120.83
938.78	69.63
939.19	102.40
939.59	-10.24
940.00	235.52
940.40	71.68
940.80	30.72
941.21	96.25
941.61	323.58
942.02	188.41
942.42	81.92
942.82	346.11
943.23	370.68
943.63	215.04
944.04	100.35
944.44	149.50
944.84	77.82
945.25	309.24
945.65	174.08
946.05	245.76
946.46	6.14
946.86	55.30
947.26	-1148.91
947.67	45.06
948.07	129.02
948.48	147.45
948.88	174.08
949.28	8.19
949.69	122.88
950.09	141.31
950.49	204.80
950.90	10.24
951.30	83.97
951.70	174.08
952.11	67.58
952.51	133.12
952.91	77.82
953.32	45.06
953.72	90.11
954.12	147.45
954.53	92.16
954.93	-6.14
955.33	151.55
955.74	65.53
956.14	-36.86
956.54	145.41
956.94	167.93
957.35	155.65
957.75	-18.43
958.15	141.31
958.56	96.25
958.96	190.46
959.36	114.69
959.76	280.57
960.17	342.01
960.57	77.82
960.97	237.56
961.38	12.29
961.78	-147.45
962.18	534.52
962.58	403.45
962.99	104.45
963.39	274.43
963.79	-28.67
964.19	92.16
964.60	159.74
965.00	155.65
965.40	108.54
965.80	94.21
966.21	339.96
966.61	137.21
967.01	30.72
967.41	100.35
967.81	-47.10
968.22	116.73
968.62	16.38
969.02	57.34
969.42	325.63
969.83	143.36
970.23	141.31
970.63	-40.96
971.03	-43.01
971.43	20.48
971.84	137.21
972.24	65.53
972.64	309.24
973.04	14.34
973.44	167.93
973.85	100.35
974.25	178.17
974.65	337.91
975.05	20.48
975.45	342.01
975.85	204.80
976.26	45.06
976.66	251.90
977.06	296.96
977.46	45.06
977.86	186.37
978.26	440.31
978.67	161.79
979.07	243.71
979.47	-24.58
979.87	141.31
980.27	223.23
980.67	90.11
981.07	161.79
981.48	178.17
981.88	299.00
982.28	450.55
982.68	272.38
983.08	247.80
983.48	202.75
983.88	102.40
984.29	192.51
984.69	112.64
985.09	63.49
985.49	278.52
985.89	133.12
986.29	131.07
986.69	258.04
987.09	71.68
987.49	403.45
987.89	387.07
988.30	-38.91
988.70	206.84
989.10	36.86
989.50	249.85
989.90	438.27
990.30	81.92
990.70	233.47
991.10	135.17
991.50	18.43
991.90	153.60
992.30	-26.62
992.70	186.37
993.10	-116.73
993.50	47.10
993.91	212.99
994.31	75.77
994.71	196.60
995.11	454.65
995.51	274.43
995.91	344.06
996.31	325.63
996.71	143.36
997.11	98.30
997.51	239.61
997.91	301.05
998.31	-6.14
998.71	182.27
999.11	174.08
999.51	36.86
999.91	141.31
1000.31	167.93
1000.71	268.28
1001.11	155.65
1001.51	122.88
1001.91	243.71
1002.31	149.50
1002.71	329.72
1003.11	143.36
1003.51	235.52
1003.91	167.93
1004.31	147.45
1004.71	208.89
1005.11	403.45
1005.51	253.95
1005.91	137.21
1006.31	53.25
1006.71	65.53
1007.11	155.65
1007.51	174.08
1007.91	188.41
1008.31	161.79
1008.71	139.26
1009.11	198.65
1009.51	432.12
1009.91	307.20
1010.30	407.55
1010.70	350.20
1011.10	256.00
1011.50	169.98
1011.90	219.13
1012.30	57.34
1012.70	212.99
1013.10	315.39
1013.50	32.77
1013.90	208.89
1014.30	239.61
1014.70	274.43
1015.10	206.84
1015.50	145.41
1015.89	389.11
1016.29	337.91
1016.69	186.37
1017.09	360.44
1017.49	194.56
1017.89	385.02
1018.29	313.34
1018.69	57.34
1019.09	266.24
1019.48	167.93
1019.88	264.19
1020.28	-24.58
1020.68	270.33
1021.08	131.07
1021.48	315.39
1021.88	385.02
1022.28	399.35
1022.67	36.86
1023.07	440.31
1023.47	184.32
1023.87	299.00
1024.27	198.65
1024.67	321.53
1025.07	382.97
1025.46	442.36
1025.86	28.67
1026.26	331.77
1026.66	380.92
1027.06	335.87
1027.46	450.55
1027.85	387.07
1028.25	315.39
1028.65	174.08
1029.05	440.31
1029.45	266.24
1029.85	372.73
1030.24	401.40
1030.64	323.58
1031.04	317.44
1031.44	286.72
1031.84	387.07
1032.23	575.48
1032.63	258.04
1033.03	354.30
1033.43	133.12
1033.83	319.48
1034.22	446.46
1034.62	436.22
1035.02	428.03
1035.42	395.26
1035.81	118.78
1036.21	247.80
1036.61	458.74
1037.01	524.28
1037.41	434.17
1037.80	354.30
1038.20	583.67
1038.60	292.86
1039.00	450.55
1039.39	493.56
1039.79	514.04
1040.19	350.20
1040.59	473.08
1040.98	415.74
1041.38	358.39
1041.78	626.68
1042.17	356.35
1042.57	342.01
1042.97	489.46
1043.37	378.87
1043.76	456.70
1044.16	376.83
1044.56	477.18
1044.96	419.83
1045.35	567.29
1045.75	235.52
1046.15	559.10
1046.54	442.36
1046.94	671.73
1047.34	421.88
1047.73	251.90
1048.13	428.03
1048.53	509.94
1048.93	266.24
1049.32	538.62
1049.72	393.21
1050.12	569.34
1050.51	372.73
1050.91	432.12
1051.31	-256.00
1051.70	407.55
1052.10	518.14
1052.50	546.81
1052.89	477.18
1053.29	313.34
1053.69	333.82
1054.08	522.23
1054.48	434.17
1054.87	403.45
1055.27	464.89
1055.67	458.74
1056.06	407.55
1056.46	602.10
1056.86	577.53
1057.25	745.46
1057.65	530.42
1058.05	528.38
1058.44	542.71
1058.84	471.03
1059.23	755.70
1059.63	573.43
1060.03	387.07
1060.42	587.77
1060.82	573.43
1061.21	518.14
1061.61	514.04
1062.01	722.93
1062.40	511.99
1062.80	610.29
1063.19	614.39
1063.59	618.49
1063.99	466.94
1064.38	624.63
1064.78	540.66
1065.17	577.53
1065.57	704.50
1065.97	378.87
1066.36	933.87
1066.76	430.07
1067.15	602.10
1067.55	669.69
1067.94	538.62
1068.34	550.90
1068.73	581.62
1069.13	630.77
1069.53	507.90
1069.92	675.83
1070.32	798.71
1070.71	471.03
1071.11	579.58
1071.50	581.62
1071.90	649.21
1072.29	743.41
1072.69	520.18
1073.08	788.47
1073.48	593.91
1073.87	610.29
1074.27	669.69
1074.66	688.12
1075.06	585.72
1075.45	534.52
1075.85	745.46
1076.24	540.66
1076.64	538.62
1077.03	712.69
1077.43	876.53
1077.82	602.10
1078.22	854.00
1078.61	729.08
1079.01	870.39
1079.40	741.36
1079.80	794.61
1080.19	722.93
1080.59	739.32
1080.98	780.28
1081.38	673.78
1081.77	692.21
1082.17	788.47
1082.56	788.47
1082.96	581.62
1083.35	800.76
1083.75	649.21
1084.14	823.28
1084.53	571.38
1084.93	761.84
1085.32	665.59
1085.72	788.47
1086.11	757.75
1086.51	886.77
1086.90	681.97
1087.30	958.45
1087.69	854.00
1088.08	550.90
1088.48	737.27
1088.87	759.80
1089.27	589.81
1089.66	700.41
1090.05	745.46
1090.45	616.44
1090.84	772.08
1091.24	780.28
1091.63	915.44
1092.02	647.16
1092.42	727.03
1092.81	714.74
1093.21	794.61
1093.60	716.79
1093.99	681.97
1094.39	827.38
1094.78	1028.08
1095.18	911.35
1095.57	980.98
1095.96	643.06
1096.36	1001.46
1096.75	1007.60
1097.14	647.16
1097.54	671.73
1097.93	595.96
1098.32	903.15
1098.72	430.07
1099.11	589.82
1099.50	653.30
1099.90	690.17
1100.29	444.41
1100.69	763.89
1101.08	843.76
1101.47	727.03
1101.87	845.81
1102.26	733.17
1102.65	765.94
1103.04	608.25
1103.44	624.63
1103.83	727.03
1104.22	927.73
1104.62	626.68
1105.01	645.11
1105.40	684.02
1105.80	776.18
1106.19	747.51
1106.58	839.67
1106.98	911.35
1107.37	710.65
1107.76	712.69
1108.15	731.12
1108.55	880.63
1108.94	952.31
1109.33	714.74
1109.73	823.28
1110.12	929.78
1110.51	866.29
1110.90	821.24
1111.30	585.72
1111.69	540.66
1112.08	786.42
1112.47	997.36
1112.87	694.26
1113.26	628.73
1113.65	862.19
1114.04	591.86
1114.44	888.82
1114.83	532.47
1115.22	827.38
1115.61	753.65
1116.01	907.25
1116.40	538.62
1116.79	761.84
1117.18	727.03
1117.58	1112.05
1117.97	653.30
1118.36	671.73
1118.75	835.57
1119.14	755.70
1119.54	702.45
1119.93	450.55
1120.32	679.93
1120.71	901.11
1121.10	745.46
1121.50	874.48
1121.89	968.69
1122.28	763.89
1122.67	755.70
1123.06	1011.70
1123.46	1077.23
1123.85	741.36
1124.24	827.38
1124.63	956.40
1125.02	774.13
1125.41	1210.35
1125.81	774.13
1126.20	841.72
1126.59	649.21
1126.98	860.15
1127.37	747.51
1127.76	987.12
1128.16	767.99
1128.55	667.64
1128.94	892.91
1129.33	937.97
1129.72	767.99
1130.11	960.50
1130.50	761.84
1130.90	921.59
1131.29	827.38
1131.68	888.82
1132.07	952.31
1132.46	1066.99
1132.85	765.94
1133.24	894.96
1133.63	866.29
1134.03	907.25
1134.42	874.48
1134.81	825.33
1135.20	923.63
1135.59	868.34
1135.98	839.67
1136.37	835.57
1136.76	960.50
1137.15	1017.84
1137.54	1179.63
1137.94	688.12
1138.33	903.15
1138.72	856.05
1139.11	1075.18
1139.50	950.26
1139.89	1054.70
1140.28	749.56
1140.67	980.98
1141.06	954.35
1141.45	800.76
1141.84	792.56
1142.23	966.64
1142.62	817.14
1143.01	839.67
1143.40	706.55
1143.80	866.29
1144.19	788.47
1144.58	817.14
1144.97	899.06
1145.36	1005.55
1145.75	749.56
1146.14	716.79
1146.53	884.72
1146.92	784.37
1147.31	927.73
1147.70	729.08
1148.09	784.37
1148.48	892.91
1148.87	1032.18
1149.26	841.72
1149.65	999.41
1150.04	761.84
1150.43	704.50
1150.82	987.12
1151.21	808.95
1151.60	813.04
1151.99	880.63
1152.38	1103.86
1152.77	669.69
1153.16	827.38
1153.55	-3153.87
1153.94	765.94
1154.33	833.52
1154.72	722.93
1155.11	841.72
1155.50	903.15
1155.89	976.88
1156.28	1093.62
1156.67	903.15
1157.06	960.50
1157.44	1112.05
1157.83	962.55
1158.22	755.70
1158.61	1085.42
1159.00	929.78
1159.39	702.45
1159.78	868.34
1160.17	1073.14
1160.56	864.24
1160.95	897.01
1161.34	833.52
1161.73	1232.88
1162.12	1044.46
1162.51	841.72
1162.90	1075.18
1163.28	1089.52
1163.67	1087.47
1164.06	835.57
1164.45	944.11
1164.84	847.86
1165.23	804.85
1165.62	1062.90
1166.01	1296.36
1166.40	864.24
1166.79	966.64
1167.17	878.58
1167.56	835.57
1167.95	792.56
1168.34	886.77
1168.73	872.43
1169.12	995.31
1169.51	958.45
1169.90	970.74
1170.28	954.35
1170.67	1066.99
1171.06	1171.44
1171.45	1343.47
1171.84	1071.09
1172.23	849.91
1172.62	1179.63
1173.00	925.68
1173.39	913.39
1173.78	880.63
1174.17	1212.40
1174.56	1097.71
1174.95	944.11
1175.33	2424.79
1175.72	1009.65
1176.11	858.10
1176.50	1030.13
1176.89	929.78
1177.28	1007.60
1177.66	1081.33
1178.05	743.41
1178.44	980.98
1178.83	727.03
1179.22	813.04
1179.60	940.02
1179.99	872.43
1180.38	978.93
1180.77	817.14
1181.16	1116.14
1181.54	931.83
1181.93	878.58
1182.32	925.68
1182.71	765.94
1183.09	1009.65
1183.48	1038.32
1183.87	538.62
1184.26	1087.47
1184.65	880.63
1185.03	1189.87
1185.42	978.93
1185.81	1161.20
1186.20	886.77
1186.58	1120.24
1186.97	958.45
1187.36	999.41
1187.75	1056.75
1188.13	917.49
1188.52	1286.12
1188.91	1032.18
1189.30	962.55
1189.68	1069.04
1190.07	1079.28
1190.46	1181.68
1190.84	878.58
1191.23	1153.01
1191.62	1177.58
1192.01	1017.84
1192.39	921.59
1192.78	1179.63
1193.17	1103.86
1193.55	1171.44
1193.94	1204.21
1194.33	1085.42
1194.72	1216.49
1195.10	1081.33
1195.49	2482.14
1195.88	1056.75
1196.26	1153.01
1196.65	1130.48
1197.04	1230.83
1197.42	849.91
1197.81	1255.40
1198.20	1304.56
1198.58	1161.20
1198.97	1134.57
1199.36	1210.35
1199.74	1105.90
1200.13	1015.79
1200.52	1341.42
1200.90	1298.41
1201.29	1193.97
1201.68	1208.30
1202.06	968.69
1202.45	786.42
1202.84	964.59
1203.22	1021.94
1203.61	1279.98
1203.99	868.34
1204.38	1236.97
1204.77	1425.39
1205.15	1081.33
1205.54	1417.19
1205.93	1236.97
1206.31	1409.00
1206.70	1228.78
1207.08	1216.49
1207.47	1482.73
1207.86	1359.85
1208.24	1327.08
1208.63	1185.77
1209.01	1290.22
1209.40	1376.24
1209.79	1374.19
1210.17	1349.61
1210.56	1538.02
1210.94	1415.15
1211.33	1392.62
1211.72	1261.55
1212.10	1148.91
1212.49	1423.34
1212.87	1386.47
1213.26	1419.24
1213.64	1193.97
1214.03	1359.85
1214.42	1230.83
1214.80	1212.40
1215.19	1224.69
1215.57	1345.52
1215.96	1499.11
1216.34	1411.05
1216.73	1331.18
1217.11	1298.41
1217.50	1239.02
1217.89	1400.81
1218.27	1204.21
1218.66	1527.78
1219.04	1501.16
1219.43	1583.08
1219.81	1255.40
1220.20	1601.51
1220.58	1333.23
1220.97	1353.71
1221.35	1265.64
1221.74	1626.09
1222.12	1269.74
1222.51	1413.10
1222.89	1259.50
1223.28	1495.02
1223.66	1456.11
1224.05	1372.14
1224.43	1374.19
1224.82	1603.56
1225.20	1329.13
1225.59	1296.36
1225.97	1484.78
1226.36	1460.20
1226.74	1454.06
1227.13	1341.42
1227.51	1277.93
1227.90	1511.40
1228.28	1316.84
1228.66	1458.15
1229.05	1347.56
1229.43	1441.77
1229.82	1363.95
1230.20	1437.67
1230.59	1738.73
1230.97	1239.02
1231.36	1540.07
1231.74	1517.54
1232.13	1703.91
1232.51	1447.91
1232.89	1472.49
1233.28	1507.31
1233.66	1421.29
1234.05	1482.73
1234.43	1452.01
1234.82	1339.37
1235.20	1611.75
1235.58	1515.50
1235.97	1349.61
1236.35	1452.01
1236.74	1507.31
1237.12	1568.74
1237.50	1474.54
1237.89	1556.46
1238.27	1423.34
1238.66	1538.02
1239.04	1390.57
1239.42	1531.88
1239.81	1640.42
1240.19	1544.17
1240.58	1675.24
1240.96	1673.19
1241.34	1437.67
1241.73	1478.63
1242.11	1591.27
1242.49	1398.76
1242.88	1558.50
1243.26	1550.31
1243.64	1531.88
1244.03	1538.02
1244.41	1277.93
1244.80	1599.46
1245.18	1511.40
1245.56	1521.64
1245.95	1357.80
1246.33	1728.49
1246.71	1619.94
1247.10	1619.94
1247.48	1497.07
1247.86	1533.93
1248.25	1456.11
1248.63	1531.88
1249.01	1677.29
1249.40	1882.08
1249.78	1642.47
1250.16	1609.70
1250.55	1474.54
1250.93	1499.11
1251.31	1488.87
1251.69	1378.28
1252.08	1564.65
1252.46	1177.58
1252.84	1290.22
1253.23	1511.40
1253.61	1464.30
1253.99	1423.34
1254.37	1478.63
1254.76	1611.75
1255.14	1538.02
1255.52	1452.01
1255.91	1163.25
1256.29	1527.78
1256.67	1499.11
1257.05	1865.70
1257.44	1521.64
1257.82	1697.77
1258.20	1546.22
1258.58	1576.94
1258.97	1482.73
1259.35	1562.60
1259.73	1732.58
1260.11	1705.96
1260.50	1292.27
1260.88	1593.32
1261.26	1712.10
1261.64	1597.42
1262.03	-1019.89
1262.41	1626.09
1262.79	1499.11
1263.17	1630.18
1263.56	1667.05
1263.94	1322.99
1264.32	1521.64
1264.70	1417.19
1265.08	1611.75
1265.47	1507.31
1265.85	1447.91
1266.23	1501.16
1266.61	1515.50
1266.99	1601.51
1267.38	1421.29
1267.76	1880.04
1268.14	1634.28
1268.52	1624.04
1268.90	1705.96
1269.29	1613.80
1269.67	1597.42
1270.05	1556.46
1270.43	1529.83
1270.81	1595.37
1271.19	1693.67
1271.58	1234.93
1271.96	1548.26
1272.34	1753.06
1272.72	1671.14
1273.10	1564.65
1273.48	1646.57
1273.86	1587.18
1274.25	1581.03
1274.63	1521.64
1275.01	1519.59
1275.39	1400.81
1275.77	1484.78
1276.15	1404.91
1276.53	1464.30
1276.92	1591.27
1277.30	1484.78
1277.68	1728.49
1278.06	1454.06
1278.44	1245.16
1278.82	1443.82
1279.20	1585.13
1279.58	1648.61
1279.97	1437.67
1280.35	1470.44
1280.73	1583.08
1281.11	1589.22
1281.49	1609.70
1281.87	1621.99
1282.25	1562.60
1282.63	1591.27
1283.01	1507.31
1283.39	1329.13
1283.77	1714.15
1284.16	1589.22
1284.54	1406.95
1284.92	1570.79
1285.30	1562.60
1285.68	1366.00
1286.06	1558.50
1286.44	1736.68
1286.82	1624.04
1287.20	1554.41
1287.58	1851.36
1287.96	1452.01
1288.34	1599.46
1288.72	1578.98
1289.10	1472.49
1289.48	1460.20
1289.86	1501.16
1290.24	1751.01
1290.62	1605.61
1291.00	1409.00
1291.38	1488.87
1291.77	1503.21
1292.15	1435.63
1292.53	1546.22
1292.91	1458.15
1293.29	1599.46
1293.67	1247.21
1294.05	1187.82
1294.43	1300.46
1294.81	1406.95
1295.19	1669.09
1295.57	1452.01
1295.95	1335.28
1296.33	1531.88
1296.71	1634.28
1297.09	1560.55
1297.47	1304.56
1297.85	1449.96
1298.23	1550.31
1298.60	1490.92
1298.98	1726.44
1299.36	1521.64
1299.74	1468.39
1300.12	1589.22
1300.50	3176.40
1300.88	1578.98
1301.26	1572.84
1301.64	1460.20
1302.02	1417.19
1302.40	1482.73
1302.78	1163.25
1303.16	1464.30
1303.54	1583.08
1303.92	1554.41
1304.30	1372.14
1304.68	1437.67
1305.06	1630.18
1305.44	1349.61
1305.82	1644.52
1306.19	1486.83
1306.57	1691.62
1306.95	1421.29
1307.33	1462.25
1307.71	1710.05
1308.09	1306.60
1308.47	1374.19
1308.85	1570.79
1309.23	1419.24
1309.61	1572.84
1309.99	1331.18
1310.36	1597.42
1310.74	1589.22
1311.12	1480.68
1311.50	1411.05
1311.88	1372.14
1312.26	1320.94
1312.64	1497.07
1313.02	1304.56
1313.39	1456.11
1313.77	1366.00
1314.15	1433.58
1314.53	1425.39
1314.91	1441.77
1315.29	1583.08
1315.67	1353.71
1316.05	1544.17
1316.42	1325.04
1316.80	1495.02
1317.18	1439.72
1317.56	1392.62
1317.94	1302.51
1318.32	1452.01
1318.69	1382.38
1319.07	1366.00
1319.45	1306.60
1319.83	1316.84
1320.21	1460.20
1320.59	1695.72
1320.96	1251.31
1321.34	1411.05
1321.72	1409.00
1322.10	1320.94
1322.48	1239.02
1322.85	1609.70
1323.23	1251.31
1323.61	1499.11
1323.99	1439.72
1324.37	1329.13
1324.74	1220.59
1325.12	1169.39
1325.50	1404.91
1325.88	1531.88
1326.26	1339.37
1326.63	1390.57
1327.01	1392.62
1327.39	1318.89
1327.77	1302.51
1328.14	1290.22
1328.52	1476.59
1328.90	1386.47
1329.28	1460.20
1329.66	1196.01
1330.03	1419.24
1330.41	1382.38
1330.79	1470.44
1331.17	1417.19
1331.54	1144.81
1331.92	1464.30
1332.30	1300.46
1332.67	1546.22
1333.05	1382.38
1333.43	1277.93
1333.81	1429.48
1334.18	1394.67
1334.56	1247.21
1334.94	1249.26
1335.32	1191.92
1335.69	1376.23
1336.07	1124.33
1336.45	1519.59
1336.82	1386.47
1337.20	1271.79
1337.58	1304.56
1337.96	1302.51
1338.33	1433.58
1338.71	1306.60
1339.09	1331.18
1339.46	1333.23
1339.84	1279.98
1340.22	1198.06
1340.59	1411.05
1340.97	1351.66
1341.35	1165.29
1341.72	1122.29
1342.10	1370.09
1342.48	1298.41
1342.85	1187.82
1343.23	1363.95
1343.61	1239.02
1343.98	1286.12
1344.36	1198.06
1344.74	1255.40
1345.11	1249.26
1345.49	1114.09
1345.87	1267.69
1346.24	1255.40
1346.62	1232.88
1347.00	1300.46
1347.37	1214.45
1347.75	1613.80
1348.12	987.12
1348.50	1116.14
1348.88	1007.60
1349.25	1110.00
1349.63	1292.27
1350.00	1314.80
1350.38	1126.38
1350.76	1132.53
1351.13	1056.75
1351.51	1198.06
1351.89	1275.88
1352.26	1308.65
1352.64	1095.66
1353.01	1325.04
1353.39	1185.77
1353.76	1191.92
1354.14	1150.96
1354.52	1136.62
1354.89	1124.33
1355.27	1310.70
1355.64	1036.27
1356.02	980.98
1356.40	1222.64
1356.77	1069.04
1357.15	1208.30
1357.52	1179.63
1357.90	1296.36
1358.27	1056.75
1358.65	1118.19
1359.02	1134.57
1359.40	1288.17
1359.78	1392.62
1360.15	1261.55
1360.53	1112.05
1360.90	1050.61
1361.28	1239.02
1361.65	1302.51
1362.03	1193.97
1362.40	1234.93
1362.78	1026.03
1363.15	1026.03
1363.53	1107.95
1363.90	1302.51
1364.28	1036.27
1364.65	1138.67
1365.03	1626.09
1365.40	1128.43
1365.78	1214.45
1366.15	1193.97
1366.53	1157.10
1366.90	1093.62
1367.28	1066.99
1367.65	1046.51
1368.03	1046.51
1368.40	1234.93
1368.78	1036.27
1369.15	1071.09
1369.53	933.87
1369.90	1146.86
1370.28	952.31
1370.65	1077.23
1371.03	1017.84
1371.40	870.39
1371.78	1083.38
1372.15	1091.57
1372.53	1013.74
1372.90	997.36
1373.27	970.74
1373.65	946.16
1374.02	1071.09
1374.40	1325.04
1374.77	1206.25
1375.15	927.73
1375.52	1159.15
1375.89	948.21
1376.27	1255.40
1376.64	1005.55
1377.02	1085.42
1377.39	851.95
1377.77	899.06
1378.14	888.82
1378.51	1054.70
1378.89	1042.42
1379.26	856.05
1379.64	1077.23
1380.01	1202.16
1380.38	1050.61
1380.76	1007.60
1381.13	858.10
1381.51	823.28
1381.88	1112.05
1382.25	1013.74
1382.63	851.95
1383.00	1167.34
1383.38	1118.19
1383.75	1060.85
1384.12	956.40
1384.50	931.83
1384.87	1013.74
1385.24	1034.22
1385.62	1046.51
1385.99	892.91
1386.36	1175.53
1386.74	917.49
1387.11	958.45
1387.49	1118.19
1387.86	1009.65
1388.23	1087.47
1388.61	870.39
1388.98	856.05
1389.35	931.83
1389.73	931.83
1390.10	987.12
1390.47	845.81
1390.85	573.43
1391.22	880.63
1391.59	1099.76
1391.96	731.12
1392.34	755.70
1392.71	1003.50
1393.08	780.28
1393.46	921.59
1393.83	985.07
1394.20	946.16
1394.58	839.67
1394.95	911.35
1395.32	958.45
1395.70	950.26
1396.07	710.65
1396.44	1095.66
1396.81	841.72
1397.19	860.15
1397.56	763.89
1397.93	1056.75
1398.30	782.32
1398.68	964.59
1399.05	1036.27
1399.42	1083.38
1399.80	919.54
1400.17	815.09
1400.54	960.50
1400.91	923.63
1401.29	808.95
1401.66	854.00
1402.03	964.59
1402.40	897.01
1402.78	643.06
1403.15	638.97
1403.52	864.24
1403.89	862.19
1404.26	858.10
1404.64	1017.84
1405.01	1023.98
1405.38	747.51
1405.75	786.42
1406.13	888.82
1406.50	958.45
1406.87	813.04
1407.24	927.73
1407.61	903.15
1407.99	686.07
1408.36	464.89
1408.73	794.61
1409.10	755.70
1409.47	800.76
1409.85	776.18
1410.22	806.90
1410.59	880.63
1410.96	1001.46
1411.33	1013.74
1411.70	841.72
1412.08	917.49
1412.45	827.38
1412.82	978.93
1413.19	782.32
1413.56	829.43
1413.93	849.91
1414.31	798.71
1414.68	772.08
1415.05	698.36
1415.42	849.91
1415.79	802.80
1416.16	851.95
1416.54	755.70
1416.91	1001.46
1417.28	788.47
1417.65	962.55
1418.02	739.32
1418.39	823.28
1418.76	589.82
1419.13	792.56
1419.51	823.28
1419.88	708.60
1420.25	946.16
1420.62	847.86
1420.99	860.15
1421.36	888.82
1421.73	647.16
1422.10	577.53
1422.47	655.35
1422.85	767.99
1423.22	999.41
1423.59	817.14
1423.96	854.00
1424.33	692.21
1424.70	681.97
1425.07	653.30
1425.44	767.99
1425.81	737.27
1426.18	638.97
1426.55	665.59
1426.92	956.40
1427.29	798.71
1427.67	628.73
1428.04	536.57
1428.41	952.31
1428.78	704.50
1429.15	753.65
1429.52	921.59
1429.89	763.89
1430.26	696.31
1430.63	815.09
1431.00	739.32
1431.37	745.46
1431.74	645.11
1432.11	608.25
1432.48	757.75
1432.85	628.73
1433.22	739.32
1433.59	587.77
1433.96	561.14
1434.33	471.03
1434.70	739.32
1435.07	438.27
1435.44	579.58
1435.81	651.25
1436.18	628.73
1436.55	577.53
1436.92	634.87
1437.29	817.14
1437.66	528.38
1438.03	710.65
1438.40	655.35
1438.77	647.16
1439.14	671.73
1439.51	561.14
1439.88	724.98
1440.25	673.78
1440.62	798.71
1440.99	675.83
1441.36	421.88
1441.73	565.24
1442.10	761.84
1442.47	571.38
1442.84	555.00
1443.21	677.88
1443.58	598.01
1443.95	518.14
1444.32	643.06
1444.68	555.00
1445.05	681.97
1445.42	542.71
1445.79	903.15
1446.16	641.01
1446.53	667.64
1446.90	581.62
1447.27	731.12
1447.64	555.00
1448.01	681.97
1448.38	712.69
1448.75	401.40
1449.12	579.58
1449.48	716.79
1449.85	681.97
1450.22	403.45
1450.59	534.52
1450.96	567.29
1451.33	544.76
1451.70	581.62
1452.07	325.63
1452.44	571.38
1452.80	628.73
1453.17	559.10
1453.54	753.65
1453.91	837.62
1454.28	522.23
1454.65	641.01
1455.02	356.35
1455.39	358.39
1455.75	514.04
1456.12	421.88
1456.49	387.07
1456.86	528.38
1457.23	200.70
1457.60	684.02
1457.96	446.46
1458.33	548.86
1458.70	585.72
1459.07	487.42
1459.44	428.03
1459.81	583.67
1460.17	378.87
1460.54	518.14
1460.91	665.59
1461.28	483.32
1461.65	307.20
1462.02	421.88
1462.38	409.59
1462.75	98.30
1463.12	495.61
1463.49	749.56
1463.86	397.31
1464.22	540.66
1464.59	763.89
1464.96	290.81
1465.33	542.71
1465.70	620.53
1466.06	681.97
1466.43	327.68
1466.80	251.90
1467.17	362.49
1467.53	538.62
1467.90	296.96
1468.27	481.27
1468.64	581.62
1469.01	473.08
1469.37	303.10
1469.74	569.34
1470.11	487.42
1470.48	335.87
1470.84	348.15
1471.21	507.90
1471.58	360.44
1471.95	538.62
1472.31	1169.39
1472.68	370.68
1473.05	452.60
1473.41	411.64
1473.78	606.20
1474.15	356.35
1474.52	624.63
1474.88	423.93
1475.25	446.46
1475.62	698.36
1475.99	356.35
1476.35	561.14
1476.72	483.32
1477.09	485.37
1477.45	370.68
1477.82	425.98
1478.19	309.24
1478.55	313.34
1478.92	458.75
1479.29	548.86
1479.66	569.34
1480.02	403.45
1480.39	391.16
1480.76	223.23
1481.12	393.21
1481.49	325.63
1481.86	319.48
1482.22	225.28
1482.59	481.27
1482.96	636.92
1483.32	387.07
1483.69	468.98
1484.06	489.46
1484.42	206.84
1484.79	174.08
1485.15	471.03
1485.52	335.87
1485.89	387.07
1486.25	497.66
1486.62	419.83
1486.99	284.67
1487.35	280.57
1487.72	399.35
1488.09	321.53
1488.45	243.71
1488.82	438.27
1489.18	393.21
1489.55	389.11
1489.92	585.72
1490.28	393.21
1490.65	385.02
1491.01	309.24
1491.38	151.55
1491.75	471.03
1492.11	237.56
1492.48	583.67
1492.84	589.82
1493.21	647.16
1493.58	339.96
1493.94	471.03
1494.31	516.09
1494.67	315.39
1495.04	309.24
1495.40	555.00
1495.77	516.09
1496.14	530.42
1496.50	360.44
1496.87	256.00
1497.23	448.51
1497.60	423.93
1497.96	294.91
1498.33	534.52
1498.70	387.07
1499.06	522.23
1499.43	495.61
1499.79	305.15
1500.16	526.33
1500.52	360.44
1500.89	262.14
1501.25	382.97
1501.62	454.65
1501.98	442.36
1502.35	342.01
1502.71	288.76
1503.08	436.22
1503.44	536.57
1503.81	405.50
1504.17	468.98
1504.54	231.42
1504.90	172.03
1505.27	237.56
1505.63	180.22
1506.00	417.79
1506.36	229.37
1506.73	405.50
1507.09	382.97
1507.46	401.40
1507.82	219.13
1508.19	372.73
1508.55	399.35
1508.92	133.12
1509.28	290.81
1509.65	221.18
1510.01	266.24
1510.38	364.54
1510.74	272.38
1511.11	397.31
1511.47	215.04
1511.83	423.93
1512.20	331.77
1512.56	253.95
1512.93	460.79
1513.29	391.16
1513.66	284.67
1514.02	204.80
1514.39	403.45
1514.75	-18.43
1515.11	468.98
1515.48	311.29
1515.84	249.85
1516.21	184.32
1516.57	317.44
1516.94	268.28
1517.30	432.12
1517.66	204.80
1518.03	129.02
1518.39	331.77
1518.76	296.96
1519.12	317.44
1519.48	382.97
1519.85	290.81
1520.21	329.72
1520.58	399.35
1520.94	104.45
1521.30	153.60
1521.67	137.21
1522.03	210.94
1522.39	327.68
1522.76	518.14
1523.12	356.35
1523.49	380.92
1523.85	-2.05
1524.21	606.20
1524.58	235.52
1524.94	401.40
1525.30	83.97
1525.67	231.42
1526.03	210.94
1526.39	409.59
1526.76	260.09
1527.12	14.34
1527.48	34.82
1527.85	253.95
1528.21	286.72
1528.57	247.80
1528.94	239.61
1529.30	155.65
1529.66	348.15
1530.03	106.49
1530.39	174.08
1530.75	337.91
1531.12	167.93
1531.48	344.06
1531.84	-126.97
1532.21	43.01
1532.57	430.07
1532.93	387.07
1533.29	235.52
1533.66	260.09
1534.02	-2609.11
1534.38	-6.14
1534.75	176.13
1535.11	51.20
1535.47	102.40
1535.83	141.31
1536.20	65.53
1536.56	116.73
1536.92	258.04
1537.28	292.86
1537.65	505.85
1538.01	432.12
1538.37	344.06
1538.74	161.79
1539.10	118.78
1539.46	706.55
1539.82	206.84
1540.19	331.77
1540.55	133.12
1540.91	172.03
1541.27	223.23
1541.63	106.49
1542.00	145.41
1542.36	38.91
1542.72	159.74
1543.08	225.28
1543.45	223.23
1543.81	159.74
1544.17	299.00
1544.53	380.92
1544.89	172.03
1545.26	198.65
1545.62	258.04
1545.98	-24.58
1546.34	172.03
1546.70	196.61
1547.07	452.60
1547.43	176.13
1547.79	245.76
1548.15	202.75
1548.51	260.09
1548.88	69.63
1549.24	229.37
1549.60	231.42
1549.96	22.53
1550.32	192.51
1550.68	247.80
1551.05	157.69
1551.41	155.65
1551.77	307.20
1552.13	133.12
1552.49	327.67
1552.85	227.32
1553.22	282.62
1553.58	110.59
1553.94	192.51
1554.30	79.87
1554.66	212.99
1555.02	176.13
1555.38	210.94
1555.75	249.85
1556.11	67.58
1556.47	57.34
1556.83	22.53
1557.19	167.93
1557.55	149.50
1557.91	137.21
1558.27	374.78
1558.63	172.03
1559.00	118.78
1559.36	315.39
1559.72	233.47
1560.08	172.03
1560.44	221.18
1560.80	167.93
1561.16	534.52
1561.52	-182.27
1561.88	90.11
1562.24	360.44
1562.60	241.66
1562.97	163.84
1563.33	-51.20
1563.69	122.88
1564.05	59.39
1564.41	188.41
1564.77	110.59
1565.13	190.46
1565.49	96.25
1565.85	10.24
1566.21	266.24
1566.57	53.25
1566.93	45.06
1567.29	45.06
1567.65	51.20
1568.01	331.77
1568.37	-79.87
1568.73	49.15
1569.09	110.59
1569.45	155.65
1569.82	264.19
1570.18	309.24
1570.54	-1071.09
1570.90	196.61
1571.26	-120.83
1571.62	6.14
1571.98	129.02
1572.34	63.49
1572.70	194.56
1573.06	262.14
1573.42	120.83
1573.78	79.87
1574.14	126.97
1574.50	59.39
1574.86	71.68
1575.22	223.23
1575.58	20.48
1575.94	186.37
1576.30	425.98
1576.66	40.96
1577.01	169.98
1577.37	51.20
1577.73	112.64
1578.09	172.03
1578.45	237.56
1578.81	-34.82
1579.17	124.93
1579.53	143.36
1579.89	233.47
1580.25	106.49
1580.61	309.24
1580.97	86.01
1581.33	10.24
1581.69	102.40
1582.05	122.88
1582.41	77.82
1582.77	98.30
1583.13	120.83
1583.49	-124.93
1583.84	223.23
1584.20	401.40
1584.56	200.70
1584.92	-83.97
1585.28	272.38
1585.64	161.79
1586.00	311.29
1586.36	6.14
1586.72	219.13
1587.08	88.06
1587.44	147.45
1587.79	-192.51
1588.15	98.30
1588.51	-71.68
1588.87	151.55
1589.23	188.41
1589.59	6.14
1589.95	126.97
1590.31	81.92
1590.66	51.20
1591.02	280.57
1591.38	147.45
1591.74	47.10
1592.10	190.46
1592.46	20.48
1592.82	-28.67
1593.18	133.12
1593.53	8.19
1593.89	153.60
1594.25	169.98
1594.61	217.08
1594.97	75.77
1595.33	120.83
1595.68	-57.34
1596.04	110.59
1596.40	169.98
1596.76	307.20
1597.12	108.54
1597.48	26.62
1597.83	221.18
1598.19	20.48
1598.55	-65.53
1598.91	86.01
1599.27	210.94
1599.62	-34.82
1599.98	237.56
1600.34	86.01
1600.70	43.01
1601.06	-47.10
1601.41	24.58
1601.77	67.58
1602.13	124.93
1602.49	194.56
1602.85	149.50
1603.20	145.41
1603.56	317.44
1603.92	100.35
1604.28	126.97
1604.63	167.93
1604.99	839.67
1605.35	79.87
1605.71	106.49
1606.06	-180.22
1606.42	194.56
1606.78	114.69
1607.14	112.64
1607.49	61.44
1607.85	-120.83
1608.21	194.56
1608.57	200.70
1608.92	-167.93
1609.28	131.07
1609.64	75.77
1610.00	43.01
1610.35	280.57
1610.71	120.83
1611.07	67.58
1611.43	-153.60
1611.78	204.80
1612.14	178.17
1612.50	-22.53
1612.85	65.53
1613.21	-28.67
1613.57	110.59
1613.92	-167.93
1614.28	-4.10
1614.64	14.34
1615.00	16.38
1615.35	-12.29
1615.71	-102.40
1616.07	71.68
1616.42	210.94
1616.78	258.04
1617.14	-149.50
1617.49	237.56
1617.85	223.23
1618.21	294.91
1618.56	124.93
1618.92	122.88
1619.28	192.51
1619.63	204.80
1619.99	-90.11
1620.35	237.56
1620.70	-200.70
1621.06	188.41
1621.42	59.39
1621.77	135.17
1622.13	235.52
1622.48	79.87
1622.84	-147.45
1623.20	165.89
1623.55	124.93
1623.91	-22.53
1624.27	186.37
1624.62	-6.14
1624.98	12.29
1625.33	18.43
1625.69	131.07
1626.05	161.79
1626.40	92.16
1626.76	161.79
1627.11	83.97
1627.47	-6.14
1627.83	200.70
1628.18	-4.10
1628.54	-94.21
1628.89	323.58
1629.25	-184.32
1629.61	-122.88
1629.96	114.69
1630.32	-20.48
1630.67	108.54
1631.03	-28.67
1631.38	124.93
1631.74	16.38
1632.10	135.17
1632.45	129.02
1632.81	-872.43
1633.16	-10.24
1633.52	-32.77
1633.87	90.11
1634.23	-53.25
1634.58	-51.20
1634.94	-34.82
1635.30	233.47
1635.65	59.39
1636.01	112.64
1636.36	-102.40
1636.72	161.79
1637.07	172.03
1637.43	122.88
1637.78	2.05
1638.14	-49.15
1638.49	-63.49
1638.85	-485.37
1639.20	49.15
1639.56	98.30
1639.91	22.53
1640.27	96.25
1640.62	-83.97
1640.98	10.24
1641.33	-149.50
1641.69	73.73
1642.04	73.73
1642.40	-98.30
1642.75	-88.06
1643.11	229.37
1643.46	-137.21
1643.82	178.17
1644.17	77.82
1644.53	-71.68
1644.88	65.53
1645.24	258.04
1645.59	-98.30
1645.94	145.41
1646.30	-26.62
1646.65	-79.87
1647.01	28.67
1647.36	55.30
1647.72	163.84
1648.07	-100.35
1648.43	-8.19
1648.78	-71.68
1649.14	-65.53
1649.49	196.60
1649.84	-114.69
1650.20	-155.65
1650.55	18.43
1650.91	139.26
1651.26	-10.24
1651.61	79.87
1651.97	-65.53
1652.32	26.62
1652.68	149.50
1653.03	16.38
1653.39	-141.31
1653.74	8.19
1654.09	10.24
1654.45	-32.77
1654.80	40.96
1655.16	28.67
1655.51	-77.82
1655.86	108.54
1656.22	139.26
1656.57	104.45
1656.92	200.70
1657.28	8.19
1657.63	45.06
1657.99	-98.30
1658.34	43.01
1658.69	217.08
1659.05	253.95
1659.40	57.34
1659.75	-233.47
1660.11	32.77
1660.46	92.16
1660.81	217.08
1661.17	92.16
1661.52	-184.32
1661.87	81.92
1662.23	-12.29
1662.58	-116.73
1662.93	143.36
1663.29	114.69
1663.64	-112.64
1663.99	28.67
1664.35	145.41
1664.70	86.01
1665.05	10.24
1665.41	-96.25
1665.76	22.53
1666.11	157.69
1666.47	378.87
1666.82	223.23
1667.17	-2.05
1667.52	-16.38
1667.88	231.42
1668.23	-83.97
1668.58	20.48
1668.94	-67.58
1669.29	120.83
1669.64	-77.82
1670.00	215.04
1670.35	139.26
1670.70	-67.58
1671.05	79.87
1671.41	-43.01
1671.76	67.58
1672.11	172.03
1672.46	208.89
1672.82	16.38
1673.17	172.03
1673.52	151.55
1673.87	169.98
1674.23	-90.11
1674.58	276.48
1674.93	36.86
1675.28	-45.06
1675.64	-43.01
1675.99	-118.78
1676.34	157.69
1676.69	69.63
1677.05	-169.98
1677.40	32.77
1677.75	-116.73
1678.10	120.83
1678.45	-18.43
1678.81	38.91
1679.16	6.14
1679.51	145.41
1679.86	-14.34
1680.21	12.29
1680.57	-61.44
1680.92	260.09
1681.27	331.77
1681.62	-86.01
1681.97	116.73
1682.33	149.50
1682.68	96.25
1683.03	186.37
1683.38	323.58
1683.73	77.82
1684.08	241.66
1684.44	159.74
1684.79	34.82
1685.14	145.41
1685.49	-22.53
1685.84	-90.11
1686.19	53.25
1686.55	159.74
1686.90	-34.82
1687.25	69.63
1687.60	337.91
1687.95	-141.31
1688.30	-98.30
1688.65	413.69
1689.01	192.51
1689.36	24.58
1689.71	-73.73
1690.06	-126.97
1690.41	2.05
1690.76	88.06
1691.11	-47.10
1691.46	28.67
1691.82	206.84
1692.17	47.10
1692.52	-118.78
1692.87	212.99
1693.22	-55.30
1693.57	-497.66
1693.92	-8.19
1694.27	-14.34
1694.62	-67.58
1694.97	-45.06
1695.33	57.34
1695.68	88.06
1696.03	-55.30
1696.38	159.74
1696.73	165.89
1697.08	356.35
1697.43	116.73
1697.78	32.77
1698.13	86.01
1698.48	26.62
1698.83	143.36
1699.18	155.65
1699.53	126.97
1699.88	131.07
1700.24	-278.52
1700.59	-122.88
1700.94	442.36
1701.29	-81.92
1701.64	-40.96
1701.99	-24.58
1702.34	204.80
1702.69	-16.38
1703.04	155.65
1703.39	194.56
1703.74	88.06
1704.09	22.53
1704.44	-92.16
1704.79	-32.77
1705.14	-237.56
1705.49	253.95
1705.84	149.50
1706.19	38.91
1706.54	4.10
1706.89	-18.43
1707.24	-32.77
1707.59	-12.29
1707.94	34.82
1708.29	63.49
1708.64	-110.59
1708.99	-43.01
1709.34	116.73
1709.69	51.20
1710.04	196.60
1710.39	28.67
1710.74	305.15
1711.09	-38.91
1711.44	178.17
1711.79	22.53
1712.14	6.14
1712.49	141.31
1712.84	86.01
1713.18	-161.79
1713.53	305.15
1713.88	65.53
1714.23	28.67
1714.58	137.21
1714.93	49.15
1715.28	-155.65
1715.63	24.58
1715.98	212.99
1716.33	59.39
1716.68	47.10
1717.03	40.96
1717.38	92.16
1717.73	-81.92
1718.08	-14.34
1718.42	288.76
1718.77	14.34
1719.12	-131.07
1719.47	221.18
1719.82	83.97
1720.17	122.88
1720.52	-75.77
1720.87	40.96
1721.22	-225.28
1721.57	122.88
1721.91	208.89
1722.26	200.70
1722.61	61.44
1722.96	-14.34
1723.31	2.05
1723.66	122.88
1724.01	-135.17
1724.36	198.65
1724.70	-86.01
1725.05	165.89
1725.40	-122.88
1725.75	124.93
1726.10	208.89
1726.45	100.35
1726.80	-114.69
1727.14	98.30
1727.49	-126.97
1727.84	-110.59
1728.19	45.06
1728.54	16.38
1728.89	241.66
1729.23	94.21
1729.58	305.15
1729.93	71.68
1730.28	18.43
1730.63	40.96
1730.97	-114.69
1731.32	159.74
1731.67	73.73
1732.02	94.21
1732.37	-225.28
1732.72	-110.59
1733.06	61.44
1733.41	145.41
1733.76	194.56
1734.11	131.07
1734.46	-106.49
1734.80	174.08
1735.15	-88.06
1735.50	69.63
1735.85	241.66
1736.19	141.31
1736.54	-71.68
>>>>>End Processed Spectral Data<<<<<
