SpectraSuite Data File
++++++++++++++++++++++++++++++++++++
Date: Tue Feb 05 14:56:53 EET 2019
User: demo
Dark Spectrum Present: Yes
Reference Spectrum Present: Yes
Number of Sampled Component Spectra: 1
Spectrometers: USB4H03366
Integration Time (usec): 20000000 (USB4H03366)
Spectra Averaged: 1 (USB4H03366)
Boxcar Smoothing: 0 (USB4H03366)
Correct for Electrical Dark: No (USB4H03366)
Strobe/Lamp Enabled: No (USB4H03366)
Correct for Detector Non-linearity: No (USB4H03366)
Correct for Stray Light: No (USB4H03366)
Number of Pixels in Processed Spectrum: 3648
>>>>>Begin Processed Spectral Data<<<<<
291.48	22.53
291.93	22.53
292.37	22.53
292.82	-6.14
293.26	-86.01
293.70	-4.10
294.15	-14.34
294.59	-24.58
295.04	61.44
295.48	286.72
295.93	-155.65
296.37	-83.97
296.82	43.01
297.26	22.53
297.71	147.45
298.15	8.19
298.59	149.50
299.04	131.07
299.48	-30.72
299.93	20.48
300.37	32.77
300.82	141.31
301.26	0.00
301.70	28.67
302.15	-45.06
302.59	36.86
303.04	-49.15
303.48	53.25
303.92	-10.24
304.37	67.58
304.81	43.01
305.26	663.54
305.70	227.32
306.14	57.34
306.59	-30.72
307.03	98.30
307.47	153.60
307.92	133.12
308.36	174.08
308.81	-77.82
309.25	231.42
309.69	358.39
310.14	319.48
310.58	0.00
311.02	83.97
311.47	12.29
311.91	-210.94
312.36	-116.73
312.80	-77.82
313.24	65.53
313.69	-36.86
314.13	-67.58
314.57	45.06
315.02	-20.48
315.46	10.24
315.90	-116.73
316.35	-223.23
316.79	-12.29
317.23	163.84
317.68	61.44
318.12	110.59
318.56	-34.82
319.00	-8.19
319.45	92.16
319.89	-49.15
320.33	47.10
320.78	229.37
321.22	83.97
321.66	-12.29
322.11	178.17
322.55	217.08
322.99	-108.54
323.43	159.74
323.88	124.93
324.32	-30.72
324.76	258.04
325.21	86.01
325.65	24.58
326.09	118.78
326.53	73.73
326.98	47.10
327.42	167.93
327.86	184.32
328.30	57.34
328.75	-120.83
329.19	-6.14
329.63	-67.58
330.07	784.37
330.52	-10.24
330.96	51.20
331.40	268.28
331.84	131.07
332.29	75.77
332.73	215.04
333.17	-73.73
333.61	135.17
334.05	61.44
334.50	-20.48
334.94	120.83
335.38	55.30
335.82	131.07
336.27	262.14
336.71	196.60
337.15	34.82
337.59	-102.40
338.03	53.25
338.47	59.39
338.92	18.43
339.36	20.48
339.80	-45.06
340.24	-112.64
340.68	-47.10
341.13	83.97
341.57	18.43
342.01	-34.82
342.45	28.67
342.89	116.73
343.33	49.15
343.78	-118.78
344.22	184.32
344.66	210.94
345.10	-90.11
345.54	61.44
345.98	81.92
346.43	176.13
346.87	282.62
347.31	184.32
347.75	79.87
348.19	30.72
348.63	47.10
349.07	-20.48
349.51	20.48
349.96	235.52
350.40	112.64
350.84	67.58
351.28	92.16
351.72	299.00
352.16	100.35
352.60	276.48
353.04	-55.30
353.49	-55.30
353.93	-65.53
354.37	108.54
354.81	-157.69
355.25	145.41
355.69	-116.73
356.13	333.82
356.57	40.96
357.01	176.13
357.45	151.55
357.89	131.07
358.33	270.33
358.78	-153.60
359.22	26.62
359.66	88.06
360.10	147.45
360.54	124.93
360.98	153.60
361.42	-20.48
361.86	20.48
362.30	-114.69
362.74	-73.73
363.18	217.08
363.62	131.07
364.06	-116.73
364.50	90.11
364.94	32.77
365.38	16.38
365.82	106.49
366.26	92.16
366.70	49.15
367.14	-26.62
367.58	61.44
368.02	-77.82
368.46	96.25
368.90	139.26
369.34	96.25
369.78	51.20
370.22	-167.93
370.66	114.69
371.10	165.89
371.54	0.00
371.98	188.41
372.42	-71.68
372.86	-28.67
373.30	167.93
373.74	-129.02
374.18	124.93
374.62	4.10
375.06	-10.24
375.50	188.41
375.94	155.65
376.38	-20.48
376.82	681.97
377.26	114.69
377.70	323.58
378.14	253.95
378.58	-309.24
379.02	251.90
379.46	221.18
379.90	190.46
380.34	190.46
380.78	319.48
381.22	53.25
381.66	30.72
382.10	102.40
382.53	90.11
382.97	-22.53
383.41	57.34
383.85	45.06
384.29	131.07
384.73	-57.34
385.17	163.84
385.61	202.75
386.05	94.21
386.49	51.20
386.93	94.21
387.36	71.68
387.80	-100.35
388.24	260.09
388.68	-108.54
389.12	227.32
389.56	53.25
390.00	329.72
390.44	51.20
390.88	270.33
391.31	104.45
391.75	124.93
392.19	-6.14
392.63	98.30
393.07	116.73
393.51	393.21
393.95	-30.72
394.39	28.67
394.82	49.15
395.26	57.34
395.70	47.10
396.14	133.12
396.58	-184.32
397.02	92.16
397.45	161.79
397.89	202.75
398.33	126.97
398.77	26.62
399.21	100.35
399.65	450.55
400.08	208.89
400.52	253.95
400.96	88.06
401.40	389.11
401.84	129.02
402.27	186.37
402.71	192.51
403.15	264.19
403.59	-10.24
404.03	61.44
404.46	81.92
404.90	139.26
405.34	286.72
405.78	225.28
406.22	184.32
406.65	370.68
407.09	100.35
407.53	278.52
407.97	192.51
408.40	268.28
408.84	286.72
409.28	311.29
409.72	387.07
410.16	159.74
410.59	180.22
411.03	180.22
411.47	268.28
411.91	413.69
412.34	212.99
412.78	286.72
413.22	288.76
413.66	448.51
414.09	366.59
414.53	608.25
414.97	405.50
415.40	532.47
415.84	561.14
416.28	540.66
416.72	440.31
417.15	258.04
417.59	413.69
418.03	563.19
418.46	600.05
418.90	686.07
419.34	571.38
419.78	409.59
420.21	802.80
420.65	385.02
421.09	675.83
421.52	868.34
421.96	804.85
422.40	864.24
422.83	817.14
423.27	782.32
423.71	1073.14
424.14	827.38
424.58	876.53
425.02	798.71
425.45	831.48
425.89	978.93
426.33	600.05
426.76	679.93
427.20	849.91
427.64	882.67
428.07	892.91
428.51	894.96
428.95	1243.12
429.38	1054.70
429.82	1075.18
430.26	1118.19
430.69	948.21
431.13	1091.57
431.57	1177.58
432.00	1271.79
432.44	1181.68
432.87	1400.81
433.31	1366.00
433.75	1241.07
434.18	1294.32
434.62	1507.31
435.05	1306.60
435.49	1267.69
435.93	1249.26
436.36	1447.91
436.80	1314.80
437.23	1548.26
437.67	1460.20
438.11	1591.27
438.54	1748.97
438.98	1740.77
439.41	1814.50
439.85	1845.22
440.29	1802.21
440.72	1675.24
441.16	2060.26
441.59	1619.94
442.03	1601.51
442.46	1808.36
442.90	1607.66
443.34	2160.61
443.77	1806.31
444.21	1863.65
444.64	2136.03
445.08	2125.79
445.51	2240.48
445.95	2156.51
446.38	2144.22
446.82	2367.45
447.25	2109.41
447.69	2490.33
448.13	2256.86
448.56	2314.20
449.00	2445.27
449.43	2279.39
449.87	2418.65
450.30	2592.73
450.74	2340.83
451.17	2650.07
451.61	2807.77
452.04	2535.39
452.48	2713.56
452.91	2656.22
453.35	2650.07
453.78	2699.22
454.22	2557.91
454.65	2893.78
455.09	2910.16
455.52	3270.61
455.96	3069.91
456.39	3006.42
456.83	3225.55
457.26	3450.83
457.69	3160.02
458.13	3373.00
458.56	3284.94
459.00	3024.85
459.43	3317.71
459.87	3465.16
460.30	3629.00
460.74	3678.15
461.17	3479.50
461.61	3782.60
462.04	3889.09
462.47	3860.42
462.91	3944.39
463.34	4104.13
463.78	4083.65
464.21	4054.98
464.65	4329.41
465.08	4298.69
465.51	4640.70
465.95	4165.57
466.38	4329.41
466.82	4513.72
467.25	4693.94
467.69	4773.82
468.12	4962.23
468.55	4921.27
468.99	4941.75
469.42	5103.54
469.86	5201.84
470.29	5408.69
470.72	4061.12
471.16	5250.99
471.59	5457.84
472.03	5341.10
472.46	5646.25
472.89	5537.71
473.33	5838.76
473.76	5808.04
474.19	5357.49
474.63	5451.69
475.06	6143.91
475.49	6143.91
475.93	6242.21
476.36	6164.39
476.80	6487.96
477.23	6559.64
477.66	6707.10
478.10	7122.84
478.53	6856.60
478.96	6965.14
479.40	7004.05
479.83	7380.88
480.26	6778.78
480.70	7575.44
481.13	7802.76
481.56	7552.91
482.00	7448.46
482.43	7630.73
482.86	7466.89
483.30	7729.03
483.73	7479.18
484.16	8195.97
484.59	7759.75
485.03	8259.46
485.46	8388.48
485.89	8331.14
486.33	8523.65
486.76	8595.32
487.19	8542.08
487.63	8642.43
488.06	8654.72
488.49	9011.06
488.92	8587.13
489.36	9099.13
489.79	9009.01
490.22	9359.22
490.65	8738.68
491.09	9467.76
491.52	9250.67
491.95	9488.24
492.38	9680.75
492.82	9795.43
493.25	9572.21
493.68	9529.20
494.11	10114.92
494.55	9811.82
494.98	9801.58
495.41	10164.07
495.84	10217.32
496.28	10415.97
496.71	10258.28
497.14	10393.44
497.57	10370.91
498.01	10436.45
498.44	10778.46
498.87	10698.59
499.30	10848.09
499.73	10475.36
500.17	10620.77
500.60	10340.19
501.03	10872.67
501.46	10889.05
501.89	10841.95
502.33	11089.75
502.76	11286.36
503.19	11030.36
503.62	11548.50
504.05	11558.74
504.49	11437.91
504.92	11435.86
505.35	11968.33
505.78	11099.99
506.21	10798.94
506.64	12212.04
507.08	11401.04
507.51	12306.24
507.94	11745.10
508.37	12150.60
508.80	12631.87
509.23	12539.71
509.67	12345.16
510.10	13051.70
510.53	13043.51
510.96	12816.19
511.39	12001.10
511.82	13352.76
512.25	13414.20
512.69	13125.43
513.12	13528.88
513.55	14061.35
513.98	13997.87
514.41	13608.75
514.84	14362.40
515.27	13713.20
515.70	14165.80
516.14	14114.60
516.57	14716.70
517.00	14749.47
517.43	14380.84
517.86	14696.22
518.29	14028.59
518.72	15007.52
519.15	15019.80
519.58	14997.28
520.01	15570.71
520.45	15525.65
520.88	15408.92
521.31	15216.41
521.74	15466.26
522.17	15879.95
522.60	16471.81
523.03	16219.91
523.46	15675.15
523.89	16609.03
524.32	16801.54
524.75	16875.26
525.18	16537.35
525.61	16617.22
526.04	16596.74
526.47	16908.03
526.90	16824.06
527.33	16504.58
527.77	17270.52
528.20	17190.65
528.63	17002.24
529.06	17112.83
529.49	16916.22
529.92	17561.33
530.35	17610.48
530.78	17374.97
531.21	17778.42
531.64	17620.72
532.07	17708.79
532.50	17727.22
532.93	17862.38
533.36	17524.47
533.79	17653.49
534.22	17886.96
534.65	17942.25
535.08	18296.55
535.51	18298.60
535.94	17964.78
536.37	17815.28
536.80	18300.65
537.23	17503.99
537.66	18030.32
538.09	17540.85
538.52	18056.94
538.95	17676.02
539.38	18263.79
539.81	18444.01
540.24	18136.81
540.66	17549.04
541.09	18437.86
541.52	18167.53
541.95	18335.46
542.38	18857.70
542.81	18958.05
543.24	18382.57
543.67	18906.85
544.10	18351.85
544.53	18589.41
544.96	17946.35
545.39	18683.62
545.82	18650.85
546.25	18122.48
546.68	19044.06
547.11	19132.12
547.53	19191.52
547.96	18939.61
548.39	18345.70
548.82	19175.13
549.25	18573.03
549.68	18925.28
550.11	19097.31
550.54	19377.88
550.97	18904.80
551.40	19478.23
551.82	19230.43
552.25	19496.66
552.68	18685.67
553.11	18896.61
553.54	19726.04
553.97	19291.87
554.40	18683.62
554.83	19277.53
555.26	19191.52
555.68	19531.48
556.11	19224.28
556.54	19248.86
556.97	19005.15
557.40	18867.94
557.83	19465.94
558.26	19769.04
558.68	19443.42
559.11	19572.44
559.54	19445.46
559.97	19740.37
560.40	19650.26
560.83	19732.18
561.25	19445.46
561.68	20059.85
562.11	19711.70
562.54	19834.58
562.97	19746.51
563.40	19435.22
563.82	19435.22
564.25	20041.42
564.68	19537.62
565.11	19554.01
565.54	18990.81
565.96	19388.12
566.39	19291.87
566.82	20166.35
567.25	19826.39
567.68	20041.42
568.10	19490.52
568.53	19721.94
568.96	19932.88
569.39	19791.57
569.81	19707.60
570.24	19795.67
570.67	19762.90
571.10	19613.40
571.53	19566.29
571.95	19820.24
572.38	19545.81
572.81	19701.46
573.24	19840.72
573.66	19963.60
574.09	19658.45
574.52	19588.82
574.95	18937.57
575.37	19789.52
575.80	19326.68
576.23	19295.96
576.66	19414.74
577.08	19402.46
577.51	18876.13
577.94	19089.12
578.36	19455.70
578.79	19554.01
579.22	19371.74
579.65	19498.71
580.07	19263.19
580.50	18218.73
580.93	19414.74
581.36	19056.35
581.78	18632.42
582.21	18368.23
582.64	18693.86
583.06	18663.14
583.49	18611.94
583.92	18427.62
584.34	18769.63
584.77	18902.75
585.20	18177.77
585.62	18372.33
586.05	18210.54
586.48	18654.95
586.90	18902.75
587.33	18048.75
587.76	18550.50
588.18	18669.28
588.61	18216.68
589.04	18200.30
589.46	18018.03
589.89	18198.25
590.32	16998.14
590.74	17800.94
591.17	18104.04
591.60	17768.18
592.02	18417.38
592.45	17456.89
592.88	17592.05
593.30	17258.23
593.73	17897.20
594.15	17184.51
594.58	17843.95
595.01	17080.06
595.43	17073.92
595.86	17260.28
596.29	17858.29
596.71	17520.37
597.14	17270.52
597.56	17301.24
597.99	17698.55
598.42	17022.72
598.84	17422.07
599.27	17225.47
599.69	18013.93
600.12	17809.14
600.55	17690.35
600.97	17073.92
601.40	17645.30
601.82	17608.44
602.25	17116.92
602.67	17475.32
603.10	17598.20
603.53	17616.63
603.95	17559.28
604.38	16822.02
604.80	16965.37
605.23	17086.20
605.65	17057.53
606.08	17204.99
606.50	17483.51
606.93	16887.55
607.36	17340.15
607.78	17743.60
608.21	17409.78
608.63	17577.72
609.06	17555.19
609.48	16938.75
609.91	17198.84
610.33	16670.47
610.76	17479.41
611.18	17385.21
611.61	17395.45
612.03	17653.49
612.46	17561.33
612.88	17069.82
613.31	17512.18
613.73	15322.90
614.16	17276.66
614.58	17295.10
615.01	16865.02
615.43	17921.77
615.86	17323.77
616.28	17553.14
616.71	17549.04
617.13	17467.13
617.56	17514.23
617.98	17876.72
618.41	17280.76
618.83	17323.77
619.26	17299.19
619.68	17596.15
620.11	17401.59
620.53	17270.52
620.96	17432.31
621.38	17471.22
621.81	17370.87
622.23	17768.18
622.65	17944.30
623.08	17934.06
623.50	17266.42
623.93	17217.27
624.35	17297.14
624.78	17442.55
625.20	17723.12
625.62	17553.14
626.05	17663.73
626.47	18015.98
626.90	18067.18
627.32	17962.73
627.75	17686.26
628.17	17653.49
628.59	17549.04
629.02	17585.91
629.44	17745.65
629.87	17458.93
630.29	17925.87
630.71	15615.76
631.14	17686.26
631.56	18366.18
631.99	17936.11
632.41	18075.37
632.83	17696.50
633.26	17766.13
633.68	17659.63
634.11	17786.61
634.53	18075.37
634.95	18253.55
635.38	18740.96
635.80	18454.25
636.22	17835.76
636.65	18409.19
637.07	18675.43
637.49	18587.36
637.92	17338.10
638.34	18648.80
638.76	18142.96
639.19	17919.73
639.61	19009.25
640.04	18710.24
640.46	18906.85
640.88	18833.12
641.31	18802.40
641.73	18826.98
642.15	19042.01
642.57	19248.86
643.00	17518.32
643.42	19433.18
643.84	19052.25
644.27	19185.37
644.69	18388.71
645.11	19003.10
645.54	18579.17
645.96	18822.88
646.38	19234.52
646.81	19091.16
647.23	19060.45
647.65	19119.84
648.07	18980.57
648.50	19318.49
648.92	19052.25
649.34	18530.02
649.77	19117.79
650.19	19592.92
650.61	19582.68
651.03	19556.05
651.46	20145.87
651.88	20362.95
652.30	19887.82
652.72	19869.39
653.15	19265.24
653.57	19723.99
653.99	20324.04
654.41	20315.85
654.84	31204.90
655.26	20225.74
655.68	20559.56
656.10	20811.46
656.53	20766.40
656.95	20330.19
657.37	20737.73
657.79	20872.90
658.22	20838.08
658.64	21122.75
659.06	20971.20
659.48	21069.50
659.90	21438.14
660.33	21493.43
660.75	21110.46
661.17	20856.51
661.59	21896.88
662.02	21943.99
662.44	21487.29
662.86	22073.01
663.28	20545.22
663.70	20481.74
664.12	21345.98
664.55	21446.33
664.97	21694.13
665.39	21853.87
665.81	21956.27
666.23	21956.27
666.66	21991.09
667.08	22449.83
667.50	21991.09
667.92	22251.18
668.34	21438.14
668.76	22904.48
669.19	22642.34
669.61	22392.49
670.03	22484.65
670.45	22277.80
670.87	22322.86
671.29	22005.42
671.71	22191.79
672.14	22005.42
672.56	22032.05
672.98	22435.50
673.40	22169.26
673.82	21923.51
674.24	22447.79
674.66	22603.43
675.08	22249.13
675.51	21968.56
675.93	22380.20
676.35	22271.66
676.77	21943.99
677.19	21579.45
677.61	21626.55
678.03	21472.95
678.45	21976.75
678.87	21962.42
679.29	21477.05
679.72	21710.52
680.14	21679.80
680.56	21614.26
680.98	21427.90
681.40	21585.59
681.82	21556.92
682.24	21288.64
682.66	21456.57
683.08	21489.34
683.50	21325.50
683.92	21589.69
684.34	21231.29
684.76	21464.76
685.18	20901.57
685.61	21208.76
686.03	20725.44
686.45	20362.95
686.87	20870.85
687.29	21010.11
687.71	20971.20
688.13	20455.11
688.55	20352.71
688.97	20143.82
689.39	20444.87
689.81	20494.02
690.23	20166.35
690.65	20590.28
691.07	20326.09
691.49	19779.28
691.91	19705.56
692.33	19257.05
692.75	19691.22
693.17	19355.35
693.59	18984.67
694.01	18718.43
694.43	19287.77
694.85	19240.67
695.27	19035.87
695.69	19363.54
696.11	18761.44
696.53	18822.88
696.95	17188.60
697.37	19132.12
697.79	17458.93
698.21	18466.53
698.63	18601.70
699.05	18357.99
699.47	18239.21
699.89	17471.22
700.31	17868.53
700.73	18525.93
701.15	18069.23
701.57	18173.67
701.98	17932.01
702.40	17964.78
702.82	17792.75
703.24	17712.88
703.66	17307.38
704.08	17714.93
704.50	17598.20
704.92	17114.87
705.34	16772.86
705.76	16940.80
706.18	16267.02
706.60	16654.08
707.02	16211.72
707.44	16842.50
707.85	16670.47
708.27	16885.50
708.69	16240.39
709.11	16379.65
709.53	15877.90
709.95	15939.34
710.37	15718.16
710.79	15589.14
711.21	15343.38
711.63	15365.91
712.04	14622.50
712.46	14980.89
712.88	14786.33
713.30	13874.99
713.72	14571.30
714.14	14827.29
714.56	14638.88
714.98	14444.32
715.39	14257.96
715.81	14260.01
716.23	14245.67
716.65	14036.78
717.07	14280.49
717.49	14008.11
717.91	13825.84
718.32	13739.82
718.74	13739.82
719.16	13104.95
719.58	13141.82
720.00	13236.02
720.42	13010.75
720.83	12717.89
721.25	12494.66
721.67	12549.95
722.09	12300.10
722.51	12128.07
722.93	11908.94
723.34	11790.16
723.76	11403.09
724.18	11489.10
724.60	11165.53
725.02	11300.69
725.43	10946.39
725.85	11429.71
726.27	11224.92
726.69	11190.10
727.11	10588.00
727.52	10991.45
727.94	10852.19
728.36	10561.37
728.78	10499.94
729.19	10336.10
729.61	10209.12
730.03	10362.72
730.45	9920.36
730.87	10000.23
731.28	9815.91
731.70	9912.17
732.12	9881.45
732.54	9717.61
732.95	9596.78
733.37	9408.37
733.79	9365.36
734.21	9041.78
734.62	9357.17
735.04	9252.72
735.46	9099.13
735.87	9183.09
736.29	9047.93
736.71	10882.91
737.13	9150.32
737.54	9009.01
737.96	8687.48
738.38	8130.44
738.80	8619.90
739.21	8468.35
739.63	8159.11
740.05	8195.97
740.46	8019.85
740.88	7626.64
741.30	7755.66
741.71	7919.50
742.13	7726.99
742.55	7853.96
742.97	7933.83
743.38	7442.32
743.80	7835.53
744.22	7399.31
744.63	7663.50
745.05	7024.53
745.47	7561.10
745.88	7487.37
746.30	7116.69
746.72	7227.28
747.13	6842.26
747.55	6786.97
747.97	6657.95
748.38	6784.92
748.80	6569.88
749.22	6426.53
749.63	6633.37
750.05	6508.44
750.46	6322.08
750.88	6440.86
751.30	6049.70
751.71	6152.10
752.13	6037.41
752.55	5722.02
752.96	5697.45
753.38	5795.75
753.79	5560.24
754.21	5703.59
754.63	5228.46
755.04	5466.03
755.46	5535.66
755.88	5410.73
756.29	5160.88
756.71	5162.93
757.12	5023.67
757.54	5081.01
757.96	4579.26
758.37	4947.89
758.79	4839.35
759.20	4773.82
759.62	4632.51
760.03	4612.03
760.45	4505.53
760.87	4446.14
761.28	4657.08
761.70	4405.18
762.11	4157.38
762.53	4523.96
762.94	4175.81
763.36	4173.76
763.78	4216.77
764.19	3880.90
764.61	4071.36
765.02	3991.49
765.44	3766.21
765.85	3880.90
766.27	3989.44
766.68	3878.85
767.10	3735.49
767.51	3878.85
767.93	3686.34
768.34	3790.79
768.76	3672.01
769.18	3852.23
769.59	3672.01
770.01	3690.44
770.42	3518.41
770.84	3629.00
771.25	3370.96
771.67	3471.31
772.08	3444.68
772.50	3577.80
772.91	3585.99
773.33	3530.70
773.74	3411.92
774.16	3172.30
774.57	3325.90
774.99	3151.82
775.40	3065.81
775.81	4063.17
776.23	3268.56
776.64	3348.43
777.06	3239.89
777.47	3383.24
777.89	3041.23
778.30	2992.08
778.72	3379.15
779.13	2856.92
779.55	3086.29
779.96	3080.14
780.38	2815.96
780.79	2967.51
781.20	2865.11
781.62	2944.98
782.03	2795.48
782.45	2639.83
782.86	3186.64
783.28	2914.26
783.69	3039.19
784.10	2764.76
784.52	2615.26
784.93	2627.54
785.35	2856.92
785.76	2703.32
786.18	2791.38
786.59	2619.35
787.00	2547.67
787.42	2594.78
787.83	2619.35
788.25	2756.57
788.66	2545.63
789.07	2539.48
789.49	2701.27
789.90	2592.73
790.32	2435.03
790.73	2394.08
791.14	2592.73
791.56	2516.95
791.97	2537.43
792.38	2291.68
792.80	2629.59
793.21	2570.20
793.62	2199.52
794.04	2471.90
794.45	2166.75
794.87	2183.13
795.28	2306.01
795.69	2310.11
796.11	1912.80
796.52	2109.41
796.93	2260.96
797.35	2007.01
797.76	2162.66
798.17	2052.06
798.59	2029.54
799.00	1814.50
799.41	1837.03
799.83	1810.40
800.24	1857.51
800.65	1591.27
801.07	1703.91
801.48	1605.61
801.89	3002.32
802.31	1460.20
802.72	1458.15
803.13	1544.17
803.54	1214.45
803.96	1247.21
804.37	1165.29
804.78	1210.35
805.20	1337.32
805.61	866.29
806.02	1208.30
806.43	774.13
806.85	956.40
807.26	1054.70
807.67	892.91
808.09	704.50
808.50	741.36
808.91	684.02
809.32	995.31
809.74	727.03
810.15	606.20
810.56	815.09
810.97	688.12
811.39	432.12
811.80	679.93
812.21	589.81
812.62	-167.93
813.04	501.75
813.45	505.85
813.86	434.17
814.27	536.57
814.68	557.05
815.10	362.49
815.51	382.97
815.92	573.43
816.33	290.81
816.75	501.75
817.16	411.64
817.57	493.56
817.98	450.55
818.39	462.84
818.81	262.14
819.22	159.74
819.63	382.97
820.04	114.69
820.45	444.41
820.87	450.55
821.28	387.07
821.69	393.21
822.10	227.32
822.51	253.95
822.92	208.89
823.34	290.81
823.75	471.03
824.16	-2688.98
824.57	319.48
824.98	514.04
825.39	466.94
825.81	563.19
826.22	299.00
826.63	479.22
827.04	282.62
827.45	622.58
827.86	530.42
828.28	493.56
828.69	405.50
829.10	569.34
829.51	479.22
829.92	573.43
830.33	313.34
830.74	303.10
831.15	395.26
831.57	411.64
831.98	591.86
832.39	264.19
832.80	309.24
833.21	479.22
833.62	219.13
834.03	311.29
834.44	489.46
834.85	266.24
835.26	417.79
835.68	403.45
836.09	333.82
836.50	376.83
836.91	382.97
837.32	339.96
837.73	280.57
838.14	311.29
838.55	178.17
838.96	380.92
839.37	342.01
839.78	204.80
840.19	225.28
840.60	194.56
841.02	190.46
841.43	280.57
841.84	296.96
842.25	63.49
842.66	24.58
843.07	251.90
843.48	114.69
843.89	-6.14
844.30	94.21
844.71	292.86
845.12	133.12
845.53	133.12
845.94	63.49
846.35	249.85
846.76	36.86
847.17	169.98
847.58	206.84
847.99	309.24
848.40	149.50
848.81	153.60
849.22	83.97
849.63	-10.24
850.04	24.58
850.45	270.33
850.86	126.97
851.27	323.58
851.68	73.73
852.09	67.58
852.50	131.07
852.91	-36.86
853.32	274.43
853.73	210.94
854.14	69.63
854.55	376.83
854.96	77.82
855.37	159.74
855.78	59.39
856.19	-96.25
856.60	280.57
857.01	-20.48
857.42	321.53
857.83	309.24
858.24	296.96
858.64	233.47
859.05	157.69
859.46	-4.10
859.87	108.54
860.28	217.08
860.69	219.13
861.10	90.11
861.51	147.45
861.92	387.07
862.33	145.41
862.74	278.52
863.15	194.56
863.56	200.70
863.96	258.04
864.37	296.96
864.78	237.56
865.19	260.09
865.60	253.95
866.01	290.81
866.42	368.63
866.83	393.21
867.24	573.43
867.65	397.31
868.05	313.34
868.46	319.48
868.87	-2193.37
869.28	432.12
869.69	268.28
870.10	1089.52
870.51	311.29
870.92	364.54
871.32	452.60
871.73	208.89
872.14	405.50
872.55	1144.81
872.96	393.21
873.37	647.16
873.77	534.52
874.18	497.66
874.59	299.00
875.00	501.75
875.41	516.09
875.82	456.70
876.22	266.24
876.63	327.67
877.04	403.45
877.45	294.91
877.86	446.46
878.27	176.13
878.67	499.70
879.08	487.42
879.49	212.99
879.90	358.39
880.31	475.13
880.71	477.18
881.12	425.98
881.53	516.09
881.94	403.45
882.35	524.28
882.75	497.66
883.16	329.72
883.57	415.74
883.98	184.32
884.38	227.32
884.79	288.76
885.20	397.31
885.61	241.66
886.02	131.07
886.42	473.08
886.83	376.83
887.24	309.24
887.65	307.20
888.05	251.90
888.46	524.28
888.87	274.43
889.28	270.33
889.68	350.20
890.09	487.42
890.50	329.72
890.91	155.65
891.31	428.03
891.72	274.43
892.13	268.28
892.53	-8.19
892.94	307.20
893.35	221.18
893.76	346.11
894.16	354.30
894.57	380.92
894.98	174.08
895.38	114.69
895.79	237.56
896.20	239.61
896.61	481.27
897.01	153.60
897.42	38.91
897.83	204.80
898.23	317.44
898.64	200.70
899.05	262.14
899.45	120.83
899.86	81.92
900.27	299.00
900.67	32.77
901.08	198.65
901.49	100.35
901.89	231.42
902.30	53.25
902.71	169.98
903.11	53.25
903.52	342.01
903.93	57.34
904.33	59.39
904.74	153.60
905.15	163.84
905.55	344.06
905.96	301.05
906.36	167.93
906.77	-34.82
907.18	124.93
907.58	40.96
907.99	129.02
908.40	229.37
908.80	51.20
909.21	135.17
909.61	36.86
910.02	206.84
910.43	184.32
910.83	10.24
911.24	102.40
911.64	262.14
912.05	182.27
912.46	98.30
912.86	129.02
913.27	90.11
913.67	221.18
914.08	219.13
914.48	256.00
914.89	4.10
915.30	65.53
915.70	40.96
916.11	75.77
916.51	196.60
916.92	67.58
917.32	71.68
917.73	215.04
918.14	153.60
918.54	55.30
918.95	69.63
919.35	-86.01
919.76	358.39
920.16	167.93
920.57	106.49
920.97	258.04
921.38	165.89
921.78	104.45
922.19	296.96
922.59	202.75
923.00	53.25
923.41	38.91
923.81	233.47
924.22	-114.69
924.62	-18.43
925.03	165.89
925.43	-88.06
925.84	131.07
926.24	20.48
926.65	153.60
927.05	92.16
927.46	34.82
927.86	260.09
928.27	172.03
928.67	-55.30
929.08	126.97
929.48	268.28
929.88	102.40
930.29	319.48
930.69	14.34
931.10	141.31
931.50	77.82
931.91	135.17
932.31	86.01
932.72	202.75
933.12	249.85
933.53	16.38
933.93	122.88
934.34	57.34
934.74	192.51
935.14	55.30
935.55	92.16
935.95	176.13
936.36	157.69
936.76	196.60
937.17	-126.97
937.57	182.27
937.97	165.89
938.38	296.96
938.78	104.45
939.19	75.77
939.59	36.86
940.00	90.11
940.40	100.35
940.80	47.10
941.21	94.21
941.61	180.22
942.02	92.16
942.42	-147.45
942.82	212.99
943.23	245.76
943.63	462.84
944.04	227.32
944.44	178.17
944.84	278.52
945.25	284.67
945.65	251.90
946.05	262.14
946.46	67.58
946.86	188.41
947.26	-1189.87
947.67	192.51
948.07	225.28
948.48	184.32
948.88	10.24
949.28	-36.86
949.69	239.61
950.09	-4.10
950.49	333.82
950.90	165.89
951.30	176.13
951.70	282.62
952.11	92.16
952.51	65.53
952.91	98.30
953.32	-65.54
953.72	98.30
954.12	354.30
954.53	262.14
954.93	-4.10
955.33	47.10
955.74	122.88
956.14	124.93
956.54	126.97
956.94	59.39
957.35	139.26
957.75	243.71
958.15	131.07
958.56	151.55
958.96	116.73
959.36	172.03
959.76	315.39
960.17	352.25
960.57	-55.30
960.97	342.01
961.38	34.82
961.78	149.50
962.18	-372.73
962.58	356.35
962.99	-34.82
963.39	198.65
963.79	0.00
964.19	229.37
964.60	233.47
965.00	266.24
965.40	118.78
965.80	151.55
966.21	92.16
966.61	258.04
967.01	153.60
967.41	-2854.87
967.81	114.69
968.22	-28.67
968.62	63.49
969.02	-65.53
969.42	219.13
969.83	147.45
970.23	61.44
970.63	-149.50
971.03	-12.29
971.43	151.55
971.84	61.44
972.24	51.20
972.64	112.64
973.04	270.33
973.44	317.44
973.85	69.63
974.25	-12.29
974.65	161.79
975.05	36.86
975.45	278.52
975.85	385.02
976.26	350.20
976.66	299.00
977.06	104.45
977.46	63.49
977.86	159.74
978.26	323.58
978.67	231.42
979.07	225.28
979.47	59.39
979.87	36.86
980.27	36.86
980.67	118.78
981.07	104.45
981.48	221.18
981.88	280.57
982.28	489.46
982.68	360.44
983.08	71.68
983.48	157.69
983.88	200.70
984.29	317.44
984.69	229.37
985.09	141.31
985.49	151.55
985.89	86.01
986.29	133.12
986.69	380.92
987.09	251.90
987.49	124.93
987.89	172.03
988.30	-139.26
988.70	368.63
989.10	360.44
989.50	276.48
989.90	268.28
990.30	79.87
990.70	249.85
991.10	327.67
991.50	-40.96
991.90	268.28
992.30	22.53
992.70	262.14
993.10	-100.35
993.50	114.69
993.91	243.71
994.31	276.48
994.71	380.92
995.11	505.85
995.51	286.72
995.91	258.04
996.31	374.78
996.71	368.63
997.11	69.63
997.51	290.81
997.91	129.02
998.31	69.63
998.71	215.04
999.11	487.42
999.51	169.98
999.91	120.83
1000.31	139.26
1000.71	235.52
1001.11	278.52
1001.51	18.43
1001.91	258.04
1002.31	243.71
1002.71	339.96
1003.11	434.17
1003.51	151.55
1003.91	129.02
1004.31	0.00
1004.71	186.37
1005.11	284.67
1005.51	186.37
1005.91	16.38
1006.31	139.26
1006.71	405.50
1007.11	92.16
1007.51	192.51
1007.91	235.52
1008.31	339.96
1008.71	22.53
1009.11	83.97
1009.51	368.63
1009.91	407.55
1010.30	301.05
1010.70	276.48
1011.10	190.46
1011.50	260.09
1011.90	196.61
1012.30	131.07
1012.70	239.61
1013.10	266.24
1013.50	126.97
1013.90	16.38
1014.30	198.65
1014.70	169.98
1015.10	180.22
1015.50	305.15
1015.89	344.06
1016.29	131.07
1016.69	225.28
1017.09	333.82
1017.49	210.94
1017.89	362.49
1018.29	325.63
1018.69	118.78
1019.09	16.38
1019.48	40.96
1019.88	43.01
1020.28	184.32
1020.68	335.87
1021.08	178.17
1021.48	155.65
1021.88	376.83
1022.28	227.32
1022.67	55.30
1023.07	358.39
1023.47	75.77
1023.87	249.85
1024.27	124.93
1024.67	344.06
1025.07	192.51
1025.46	411.64
1025.86	2.05
1026.26	352.25
1026.66	317.44
1027.06	180.22
1027.46	32.77
1027.85	333.82
1028.25	118.78
1028.65	288.76
1029.05	292.86
1029.45	169.98
1029.85	473.08
1030.24	401.40
1030.64	524.28
1031.04	292.86
1031.44	231.42
1031.84	499.70
1032.23	198.65
1032.63	274.43
1033.03	464.89
1033.43	90.11
1033.83	376.83
1034.22	432.12
1034.62	555.00
1035.02	247.80
1035.42	358.39
1035.81	190.46
1036.21	225.28
1036.61	634.87
1037.01	313.34
1037.41	458.74
1037.80	266.24
1038.20	495.61
1038.60	198.65
1039.00	245.76
1039.39	514.04
1039.79	311.29
1040.19	215.04
1040.59	421.88
1040.98	382.97
1041.38	286.72
1041.78	432.12
1042.17	253.95
1042.57	139.26
1042.97	397.31
1043.37	360.44
1043.76	411.64
1044.16	313.34
1044.56	397.31
1044.96	411.64
1045.35	413.69
1045.75	202.75
1046.15	376.83
1046.54	425.98
1046.94	610.29
1047.34	141.31
1047.73	348.15
1048.13	282.62
1048.53	571.38
1048.93	311.29
1049.32	409.59
1049.72	311.29
1050.12	364.54
1050.51	260.09
1050.91	352.25
1051.31	-45.06
1051.70	309.24
1052.10	321.53
1052.50	499.70
1052.89	419.83
1053.29	176.13
1053.69	290.81
1054.08	217.08
1054.48	446.46
1054.87	288.76
1055.27	307.20
1055.67	391.16
1056.06	391.16
1056.46	407.55
1056.86	505.85
1057.25	634.87
1057.65	440.31
1058.05	329.72
1058.44	368.63
1058.84	415.74
1059.23	428.03
1059.63	534.52
1060.03	208.89
1060.42	356.35
1060.82	450.55
1061.21	419.83
1061.61	518.14
1062.01	528.38
1062.40	264.19
1062.80	348.15
1063.19	571.38
1063.59	186.37
1063.99	393.21
1064.38	417.79
1064.78	604.15
1065.17	376.83
1065.57	481.27
1065.97	391.16
1066.36	540.66
1066.76	401.40
1067.15	643.06
1067.55	563.19
1067.94	413.69
1068.34	555.00
1068.73	352.25
1069.13	407.55
1069.53	387.07
1069.92	690.17
1070.32	743.41
1070.71	270.33
1071.11	462.84
1071.50	507.90
1071.90	565.24
1072.29	634.87
1072.69	538.62
1073.08	524.28
1073.48	380.92
1073.87	413.69
1074.27	569.34
1074.66	362.49
1075.06	468.98
1075.45	446.46
1075.85	612.34
1076.24	325.63
1076.64	591.86
1077.03	421.88
1077.43	698.36
1077.82	514.04
1078.22	620.53
1078.61	348.15
1079.01	671.73
1079.40	425.98
1079.80	468.98
1080.19	468.98
1080.59	477.18
1080.98	591.86
1081.38	514.04
1081.77	505.85
1082.17	397.31
1082.56	585.72
1082.96	393.21
1083.35	608.25
1083.75	339.96
1084.14	489.46
1084.53	393.21
1084.93	550.90
1085.32	634.87
1085.72	514.04
1086.11	485.37
1086.51	698.36
1086.90	350.20
1087.30	612.34
1087.69	501.75
1088.08	460.79
1088.48	323.58
1088.87	464.89
1089.27	546.81
1089.66	587.77
1090.05	319.48
1090.45	333.82
1090.84	528.38
1091.24	595.96
1091.63	700.41
1092.02	546.81
1092.42	487.42
1092.81	548.86
1093.21	583.67
1093.60	585.72
1093.99	540.66
1094.39	546.81
1094.78	667.64
1095.18	530.42
1095.57	704.50
1095.96	518.14
1096.36	663.54
1096.75	526.33
1097.14	499.70
1097.54	405.50
1097.93	313.34
1098.32	522.23
1098.72	532.47
1099.11	403.45
1099.50	450.55
1099.90	503.80
1100.29	366.59
1100.69	436.22
1101.08	647.16
1101.47	602.10
1101.87	665.59
1102.26	397.31
1102.65	606.20
1103.04	501.75
1103.44	477.18
1103.83	487.42
1104.22	911.35
1104.62	571.38
1105.01	589.82
1105.40	471.03
1105.80	700.41
1106.19	534.52
1106.58	462.84
1106.98	516.09
1107.37	528.38
1107.76	542.71
1108.15	419.83
1108.55	667.64
1108.94	684.02
1109.33	595.96
1109.73	595.96
1110.12	511.99
1110.51	565.24
1110.90	317.44
1111.30	272.38
1111.69	495.61
1112.08	647.16
1112.47	622.58
1112.87	352.25
1113.26	397.31
1113.65	493.56
1114.04	473.08
1114.44	604.15
1114.83	555.00
1115.22	727.03
1115.61	448.51
1116.01	491.51
1116.40	417.79
1116.79	436.22
1117.18	565.24
1117.58	800.76
1117.97	557.05
1118.36	514.04
1118.75	538.62
1119.14	419.83
1119.54	686.07
1119.93	286.72
1120.32	468.98
1120.71	604.15
1121.10	413.69
1121.50	710.65
1121.89	645.11
1122.28	407.55
1122.67	489.46
1123.06	198.65
1123.46	731.12
1123.85	415.74
1124.24	477.18
1124.63	733.17
1125.02	532.47
1125.41	1249.26
1125.81	587.77
1126.20	659.45
1126.59	550.90
1126.98	473.08
1127.37	344.06
1127.76	806.90
1128.16	616.44
1128.55	495.61
1128.94	641.01
1129.33	706.55
1129.72	561.14
1130.11	800.76
1130.50	561.14
1130.90	620.53
1131.29	557.05
1131.68	608.25
1132.07	653.30
1132.46	733.17
1132.85	552.95
1133.24	739.32
1133.63	573.43
1134.03	698.36
1134.42	669.69
1134.81	692.21
1135.20	604.15
1135.59	589.81
1135.98	624.63
1136.37	536.57
1136.76	653.30
1137.15	702.45
1137.54	1417.19
1137.94	411.64
1138.33	698.36
1138.72	491.51
1139.11	722.93
1139.50	765.94
1139.89	620.53
1140.28	397.31
1140.67	552.95
1141.06	655.35
1141.45	602.10
1141.84	350.20
1142.23	591.86
1142.62	651.25
1143.01	661.49
1143.40	552.95
1143.80	755.70
1144.19	595.96
1144.58	714.74
1144.97	688.12
1145.36	649.21
1145.75	395.26
1146.14	690.17
1146.53	626.68
1146.92	712.69
1147.31	595.96
1147.70	673.78
1148.09	919.54
1148.48	606.20
1148.87	802.80
1149.26	686.07
1149.65	645.11
1150.04	681.97
1150.43	489.46
1150.82	731.12
1151.21	641.01
1151.60	651.25
1151.99	722.93
1152.38	661.49
1152.77	532.47
1153.16	792.56
1153.55	-3508.17
1153.94	745.46
1154.33	511.99
1154.72	698.36
1155.11	540.66
1155.50	618.49
1155.89	632.82
1156.28	933.87
1156.67	387.07
1157.06	739.32
1157.44	817.14
1157.83	841.72
1158.22	659.45
1158.61	741.36
1159.00	802.80
1159.39	557.05
1159.78	630.77
1160.17	661.49
1160.56	718.84
1160.95	684.02
1161.34	806.90
1161.73	794.61
1162.12	536.57
1162.51	616.44
1162.90	794.61
1163.28	659.45
1163.67	774.13
1164.06	595.96
1164.45	684.02
1164.84	598.01
1165.23	729.08
1165.62	854.00
1166.01	507.90
1166.40	704.50
1166.79	659.45
1167.17	643.06
1167.56	712.69
1167.95	614.39
1168.34	503.80
1168.73	731.12
1169.12	837.62
1169.51	557.05
1169.90	602.10
1170.28	761.84
1170.67	880.63
1171.06	790.52
1171.45	1046.51
1171.84	794.61
1172.23	628.73
1172.62	1007.60
1173.00	591.86
1173.39	655.35
1173.78	440.31
1174.17	792.56
1174.56	794.61
1174.95	563.19
1175.33	673.78
1175.72	679.93
1176.11	409.59
1176.50	673.78
1176.89	780.28
1177.28	645.11
1177.66	831.48
1178.05	485.37
1178.44	628.73
1178.83	440.31
1179.22	540.66
1179.60	526.33
1179.99	495.61
1180.38	555.00
1180.77	593.91
1181.16	575.48
1181.54	595.96
1181.93	706.55
1182.32	518.14
1182.71	598.01
1183.09	563.19
1183.48	643.06
1183.87	692.21
1184.26	612.34
1184.65	714.74
1185.03	892.91
1185.42	718.84
1185.81	821.24
1186.20	530.42
1186.58	659.45
1186.97	555.00
1187.36	628.73
1187.75	540.66
1188.13	645.11
1188.52	866.29
1188.91	745.46
1189.30	602.10
1189.68	686.07
1190.07	749.56
1190.46	755.70
1190.84	532.47
1191.23	724.98
1191.62	761.84
1192.01	583.67
1192.39	518.14
1192.78	761.84
1193.17	831.48
1193.55	706.55
1193.94	684.02
1194.33	720.89
1194.72	870.39
1195.10	1005.55
1195.49	1705.96
1195.88	534.52
1196.26	1085.42
1196.65	704.50
1197.04	561.14
1197.42	663.54
1197.81	874.48
1198.20	753.65
1198.58	520.18
1198.97	874.48
1199.36	704.50
1199.74	778.23
1200.13	845.81
1200.52	825.33
1200.90	628.73
1201.29	702.45
1201.68	892.91
1202.06	477.18
1202.45	143.36
1202.84	421.88
1203.22	524.28
1203.61	780.28
1203.99	438.27
1204.38	663.54
1204.77	956.40
1205.15	684.02
1205.54	954.35
1205.93	841.72
1206.31	1083.38
1206.70	747.51
1207.08	679.93
1207.47	765.94
1207.86	860.15
1208.24	657.40
1208.63	507.90
1209.01	698.36
1209.40	608.25
1209.79	741.36
1210.17	864.24
1210.56	966.64
1210.94	937.97
1211.33	815.09
1211.72	686.07
1212.10	653.30
1212.49	880.63
1212.87	901.11
1213.26	991.22
1213.64	727.03
1214.03	778.23
1214.42	782.32
1214.80	667.64
1215.19	608.25
1215.57	714.74
1215.96	854.00
1216.34	792.56
1216.73	884.72
1217.11	786.42
1217.50	442.36
1217.89	774.13
1218.27	616.44
1218.66	946.16
1219.04	905.20
1219.43	882.67
1219.81	729.08
1220.20	927.73
1220.58	804.85
1220.97	786.42
1221.35	624.63
1221.74	1058.80
1222.12	811.00
1222.51	669.69
1222.89	530.42
1223.28	706.55
1223.66	722.93
1224.05	813.04
1224.43	698.36
1224.82	1085.42
1225.20	792.56
1225.59	761.84
1225.97	755.70
1226.36	878.58
1226.74	772.08
1227.13	675.83
1227.51	1015.79
1227.90	679.93
1228.28	702.45
1228.66	813.04
1229.05	690.17
1229.43	890.87
1229.82	722.93
1230.20	845.81
1230.59	944.11
1230.97	765.94
1231.36	839.67
1231.74	917.49
1232.13	878.58
1232.51	925.68
1232.89	679.93
1233.28	784.37
1233.66	882.67
1234.05	860.15
1234.43	702.45
1234.82	888.82
1235.20	985.07
1235.58	892.91
1235.97	718.84
1236.35	745.46
1236.74	737.27
1237.12	804.85
1237.50	737.27
1237.89	782.32
1238.27	606.20
1238.66	870.39
1239.04	632.82
1239.42	747.51
1239.81	796.66
1240.19	794.61
1240.58	942.07
1240.96	925.68
1241.34	784.37
1241.73	847.86
1242.11	964.59
1242.49	604.15
1242.88	962.55
1243.26	776.18
1243.64	903.15
1244.03	962.55
1244.41	632.82
1244.80	954.35
1245.18	763.89
1245.56	819.19
1245.95	888.82
1246.33	849.91
1246.71	1120.24
1247.10	802.80
1247.48	899.06
1247.86	1060.85
1248.25	686.07
1248.63	854.00
1249.01	753.65
1249.40	675.83
1249.78	985.07
1250.16	921.59
1250.55	839.67
1250.93	929.78
1251.31	696.31
1251.69	733.17
1252.08	794.61
1252.46	591.86
1252.84	792.56
1253.23	839.67
1253.61	706.55
1253.99	813.04
1254.37	839.67
1254.76	858.10
1255.14	991.22
1255.52	792.56
1255.91	729.08
1256.29	823.28
1256.67	860.15
1257.05	1003.50
1257.44	819.19
1257.82	901.11
1258.20	1019.89
1258.58	790.52
1258.97	882.67
1259.35	884.72
1259.73	1093.62
1260.11	880.63
1260.50	681.97
1260.88	735.22
1261.26	845.81
1261.64	878.58
1262.03	-2566.10
1262.41	778.23
1262.79	851.96
1263.17	864.24
1263.56	1040.37
1263.94	794.61
1264.32	727.03
1264.70	1034.22
1265.08	649.21
1265.47	909.30
1265.85	870.39
1266.23	806.90
1266.61	970.74
1266.99	913.39
1267.38	735.22
1267.76	993.26
1268.14	1056.75
1268.52	821.24
1268.90	935.92
1269.29	976.88
1269.67	866.29
1270.05	1007.60
1270.43	720.88
1270.81	786.42
1271.19	1017.84
1271.58	581.62
1271.96	1118.19
1272.34	907.25
1272.72	935.92
1273.10	626.68
1273.48	782.32
1273.86	1058.80
1274.25	954.35
1274.63	698.36
1275.01	708.60
1275.39	813.04
1275.77	921.59
1276.15	794.61
1276.53	692.21
1276.92	671.73
1277.30	743.41
1277.68	911.35
1278.06	1030.13
1278.44	905.20
1278.82	884.72
1279.20	835.57
1279.58	915.44
1279.97	835.57
1280.35	782.32
1280.73	921.59
1281.11	915.44
1281.49	864.24
1281.87	894.96
1282.25	849.91
1282.63	868.34
1283.01	983.02
1283.39	800.76
1283.77	1140.72
1284.16	833.52
1284.54	837.62
1284.92	751.60
1285.30	903.15
1285.68	888.82
1286.06	1050.61
1286.44	892.91
1286.82	940.02
1287.20	980.98
1287.58	722.93
1287.96	968.69
1288.34	1056.75
1288.72	956.40
1289.10	970.74
1289.48	819.19
1289.86	886.77
1290.24	1017.84
1290.62	976.88
1291.00	694.26
1291.38	886.77
1291.77	913.39
1292.15	788.47
1292.53	925.68
1292.91	897.01
1293.29	1116.14
1293.67	534.52
1294.05	823.28
1294.43	772.08
1294.81	856.05
1295.19	983.02
1295.57	1052.66
1295.95	1021.94
1296.33	921.59
1296.71	1286.12
1297.09	1058.80
1297.47	868.34
1297.85	1146.86
1298.23	1042.42
1298.60	780.28
1298.98	944.11
1299.36	808.95
1299.74	849.91
1300.12	1075.18
1300.50	2629.59
1300.88	1021.94
1301.26	1075.18
1301.64	1077.23
1302.02	940.02
1302.40	821.24
1302.78	770.04
1303.16	1114.10
1303.54	976.88
1303.92	1036.27
1304.30	1007.60
1304.68	964.59
1305.06	1302.51
1305.44	1036.27
1305.82	1048.56
1306.19	907.25
1306.57	1110.00
1306.95	993.26
1307.33	1032.18
1307.71	1202.16
1308.09	1056.75
1308.47	854.00
1308.85	1032.18
1309.23	1009.65
1309.61	929.78
1309.99	929.78
1310.36	1052.66
1310.74	1077.23
1311.12	1269.74
1311.50	1060.85
1311.88	1066.99
1312.26	802.80
1312.64	1007.60
1313.02	876.53
1313.39	1038.32
1313.77	1062.90
1314.15	1329.13
1314.53	985.07
1314.91	1026.03
1315.29	1062.90
1315.67	1140.72
1316.05	1071.09
1316.42	1052.66
1316.80	1046.51
1317.18	991.22
1317.56	978.93
1317.94	743.41
1318.32	1085.42
1318.69	1214.45
1319.07	1191.92
1319.45	1036.27
1319.83	917.49
1320.21	1030.13
1320.59	430.07
1320.96	1091.57
1321.34	1103.86
1321.72	1128.43
1322.10	1103.86
1322.48	950.26
1322.85	1112.05
1323.23	884.72
1323.61	1288.17
1323.99	1107.95
1324.37	921.59
1324.74	1142.77
1325.12	1112.05
1325.50	1286.12
1325.88	1159.15
1326.26	972.79
1326.63	1341.42
1327.01	1105.90
1327.39	1116.14
1327.77	964.59
1328.14	1206.25
1328.52	1032.18
1328.90	1214.45
1329.28	1118.19
1329.66	952.31
1330.03	917.49
1330.41	1173.49
1330.79	1263.60
1331.17	1206.25
1331.54	1120.24
1331.92	1312.75
1332.30	1116.14
1332.67	1142.77
1333.05	1042.42
1333.43	1257.45
1333.81	1091.57
1334.18	1153.01
1334.56	1038.32
1334.94	1107.95
1335.32	989.17
1335.69	983.02
1336.07	1214.45
1336.45	1302.51
1336.82	1243.12
1337.20	1148.91
1337.58	1366.00
1337.96	1236.97
1338.33	1421.29
1338.71	1130.48
1339.09	1228.78
1339.46	1107.95
1339.84	1218.54
1340.22	1112.05
1340.59	1011.70
1340.97	1251.31
1341.35	1112.05
1341.72	1138.67
1342.10	1187.82
1342.48	1273.84
1342.85	1220.59
1343.23	1036.27
1343.61	1157.10
1343.98	1028.08
1344.36	1050.61
1344.74	1331.18
1345.11	890.87
1345.49	1228.78
1345.87	1236.97
1346.24	1234.93
1346.62	1140.72
1347.00	1056.75
1347.37	1265.64
1347.75	1331.18
1348.12	1103.86
1348.50	1105.90
1348.88	931.83
1349.25	1116.14
1349.63	1075.18
1350.00	1097.71
1350.38	1064.94
1350.76	993.26
1351.13	1048.56
1351.51	1259.50
1351.89	1316.84
1352.26	1239.02
1352.64	1286.12
1353.01	1138.67
1353.39	1122.29
1353.76	1155.05
1354.14	1058.80
1354.52	1165.29
1354.89	1134.57
1355.27	1169.39
1355.64	966.64
1356.02	1050.61
1356.40	1153.01
1356.77	1069.04
1357.15	1128.43
1357.52	1226.73
1357.90	1177.58
1358.27	1087.47
1358.65	1347.56
1359.02	1140.72
1359.40	1327.08
1359.78	1196.01
1360.15	1128.43
1360.53	1132.53
1360.90	1236.97
1361.28	1181.68
1361.65	1103.86
1362.03	1208.30
1362.40	1277.93
1362.78	1263.60
1363.15	1093.62
1363.53	1191.92
1363.90	1142.77
1364.28	1046.51
1364.65	1318.89
1365.03	1867.75
1365.40	1345.52
1365.78	1454.06
1366.15	1150.96
1366.53	1163.25
1366.90	1042.42
1367.28	1085.42
1367.65	1132.53
1368.03	1050.61
1368.40	1335.28
1368.78	1017.84
1369.15	958.45
1369.53	1155.05
1369.90	1212.40
1370.28	1243.12
1370.65	1003.50
1371.03	1116.14
1371.40	1251.31
1371.78	1247.21
1372.15	1142.77
1372.53	1122.29
1372.90	1021.94
1373.27	1261.55
1373.65	958.45
1374.02	1097.71
1374.40	1359.85
1374.77	1142.77
1375.15	1071.09
1375.52	1255.40
1375.89	1019.89
1376.27	1101.81
1376.64	1169.39
1377.02	1144.81
1377.39	882.67
1377.77	1034.22
1378.14	1083.38
1378.51	1193.97
1378.89	1257.45
1379.26	1241.07
1379.64	1245.16
1380.01	1107.95
1380.38	1138.67
1380.76	1093.62
1381.13	952.31
1381.51	1007.60
1381.88	1193.97
1382.25	1187.82
1382.63	1116.14
1383.00	1222.64
1383.38	1214.45
1383.75	1058.80
1384.12	1103.86
1384.50	1013.74
1384.87	1120.24
1385.24	1083.38
1385.62	1234.93
1385.99	974.83
1386.36	1167.34
1386.74	1028.08
1387.11	1060.85
1387.49	1040.37
1387.86	1134.57
1388.23	1212.40
1388.61	1292.27
1388.98	1048.56
1389.35	1060.85
1389.73	1066.99
1390.10	940.02
1390.47	1110.00
1390.85	919.54
1391.22	952.31
1391.59	1189.87
1391.96	1368.04
1392.34	1081.33
1392.71	944.11
1393.08	1034.22
1393.46	1214.45
1393.83	1120.24
1394.20	1198.06
1394.58	1058.80
1394.95	1132.53
1395.32	968.69
1395.70	1124.33
1396.07	980.98
1396.44	1286.12
1396.81	985.07
1397.19	964.59
1397.56	1015.79
1397.93	1150.96
1398.30	1040.37
1398.68	1071.09
1399.05	1116.14
1399.42	1226.73
1399.80	1095.66
1400.17	1019.89
1400.54	923.63
1400.91	1097.71
1401.29	1083.38
1401.66	1003.50
1402.03	960.50
1402.40	1257.45
1402.78	937.97
1403.15	958.45
1403.52	790.52
1403.89	909.30
1404.26	980.98
1404.64	1015.79
1405.01	1023.98
1405.38	1077.23
1405.75	1198.06
1406.13	1150.96
1406.50	1163.25
1406.87	970.74
1407.24	1036.27
1407.61	1013.74
1407.99	864.24
1408.36	987.12
1408.73	872.43
1409.10	817.14
1409.47	1077.23
1409.85	1077.23
1410.22	1062.90
1410.59	976.88
1410.96	1306.60
1411.33	1402.86
1411.70	1101.81
1412.08	1015.79
1412.45	966.64
1412.82	1095.66
1413.19	1040.37
1413.56	1009.65
1413.93	976.88
1414.31	985.07
1414.68	929.78
1415.05	903.15
1415.42	1023.98
1415.79	860.15
1416.16	948.21
1416.54	882.67
1416.91	1155.05
1417.28	1050.61
1417.65	931.83
1418.02	714.74
1418.39	890.87
1418.76	862.19
1419.13	868.34
1419.51	825.33
1419.88	722.93
1420.25	927.73
1420.62	913.39
1420.99	983.03
1421.36	946.16
1421.73	899.06
1422.10	811.00
1422.47	860.15
1422.85	825.33
1423.22	917.49
1423.59	972.79
1423.96	786.42
1424.33	860.15
1424.70	591.86
1425.07	788.47
1425.44	690.17
1425.81	845.81
1426.18	1048.56
1426.55	890.87
1426.92	1003.50
1427.29	970.74
1427.67	956.40
1428.04	935.92
1428.41	1140.72
1428.78	976.88
1429.15	761.84
1429.52	1128.43
1429.89	862.19
1430.26	800.76
1430.63	970.74
1431.00	970.74
1431.37	915.44
1431.74	724.98
1432.11	628.73
1432.48	1048.56
1432.85	772.08
1433.22	819.19
1433.59	892.91
1433.96	833.52
1434.33	657.40
1434.70	837.62
1435.07	589.82
1435.44	956.40
1435.81	907.25
1436.18	737.27
1436.55	786.42
1436.92	1327.08
1437.29	915.44
1437.66	634.87
1438.03	872.43
1438.40	759.80
1438.77	737.27
1439.14	872.43
1439.51	681.97
1439.88	884.72
1440.25	759.80
1440.62	913.39
1440.99	765.94
1441.36	759.80
1441.73	696.31
1442.10	767.99
1442.47	645.11
1442.84	913.39
1443.21	864.24
1443.58	897.01
1443.95	960.50
1444.32	729.08
1444.68	819.19
1445.05	757.75
1445.42	843.76
1445.79	890.87
1446.16	856.05
1446.53	827.38
1446.90	684.02
1447.27	899.06
1447.64	819.19
1448.01	786.42
1448.38	792.56
1448.75	548.86
1449.12	663.54
1449.48	675.83
1449.85	876.53
1450.22	669.69
1450.59	659.45
1450.96	968.69
1451.33	614.39
1451.70	573.43
1452.07	655.35
1452.44	776.18
1452.80	770.04
1453.17	581.62
1453.54	972.79
1453.91	888.82
1454.28	655.35
1454.65	731.12
1455.02	550.90
1455.39	630.77
1455.75	755.70
1456.12	534.52
1456.49	616.44
1456.86	712.69
1457.23	462.84
1457.60	862.19
1457.96	622.58
1458.33	655.35
1458.70	583.67
1459.07	514.04
1459.44	501.75
1459.81	501.75
1460.17	356.35
1460.54	770.04
1460.91	794.61
1461.28	589.82
1461.65	518.14
1462.02	563.19
1462.38	548.86
1462.75	397.31
1463.12	511.99
1463.49	782.32
1463.86	321.53
1464.22	501.75
1464.59	571.38
1464.96	432.12
1465.33	520.18
1465.70	565.24
1466.06	501.75
1466.43	409.59
1466.80	516.09
1467.17	628.73
1467.53	679.93
1467.90	714.74
1468.27	548.86
1468.64	487.42
1469.01	516.09
1469.37	428.03
1469.74	454.65
1470.11	649.21
1470.48	415.74
1470.84	409.59
1471.21	514.04
1471.58	593.91
1471.95	491.51
1472.31	1279.98
1472.68	444.41
1473.05	651.25
1473.41	520.18
1473.78	550.90
1474.15	395.26
1474.52	604.15
1474.88	391.16
1475.25	641.01
1475.62	614.39
1475.99	413.69
1476.35	503.80
1476.72	524.28
1477.09	743.41
1477.45	403.45
1477.82	563.19
1478.19	378.87
1478.55	493.56
1478.92	720.89
1479.29	530.42
1479.66	712.69
1480.02	559.10
1480.39	473.08
1480.76	346.11
1481.12	262.14
1481.49	374.78
1481.86	569.34
1482.22	481.27
1482.59	559.10
1482.96	522.23
1483.32	466.94
1483.69	423.93
1484.06	587.77
1484.42	544.76
1484.79	251.90
1485.15	393.21
1485.52	399.35
1485.89	544.76
1486.25	681.97
1486.62	378.87
1486.99	524.28
1487.35	339.96
1487.72	509.94
1488.09	569.34
1488.45	323.58
1488.82	507.90
1489.18	448.51
1489.55	569.34
1489.92	374.78
1490.28	301.05
1490.65	317.44
1491.01	440.31
1491.38	534.52
1491.75	516.09
1492.11	278.52
1492.48	358.39
1492.84	542.71
1493.21	489.46
1493.58	339.96
1493.94	387.07
1494.31	407.55
1494.67	495.61
1495.04	473.08
1495.40	602.10
1495.77	673.78
1496.14	401.40
1496.50	356.35
1496.87	438.27
1497.23	391.16
1497.60	634.87
1497.96	483.32
1498.33	538.62
1498.70	337.91
1499.06	534.52
1499.43	481.27
1499.79	450.55
1500.16	501.75
1500.52	430.07
1500.89	204.80
1501.25	393.21
1501.62	258.04
1501.98	413.69
1502.35	550.90
1502.71	344.06
1503.08	350.20
1503.44	583.67
1503.81	403.45
1504.17	360.44
1504.54	331.77
1504.90	477.18
1505.27	329.72
1505.63	147.45
1506.00	542.71
1506.36	479.22
1506.73	442.36
1507.09	511.99
1507.46	374.78
1507.82	694.26
1508.19	276.48
1508.55	233.47
1508.92	260.09
1509.28	405.50
1509.65	239.61
1510.01	344.06
1510.38	315.39
1510.74	235.52
1511.11	356.35
1511.47	143.36
1511.83	319.48
1512.20	67.58
1512.56	348.15
1512.93	548.86
1513.29	397.31
1513.66	118.78
1514.02	225.28
1514.39	401.40
1514.75	32.77
1515.11	468.98
1515.48	319.48
1515.84	288.76
1516.21	385.02
1516.57	151.55
1516.94	477.18
1517.30	536.57
1517.66	268.28
1518.03	98.30
1518.39	561.14
1518.76	565.24
1519.12	413.69
1519.48	364.54
1519.85	270.33
1520.21	284.67
1520.58	247.80
1520.94	210.94
1521.30	163.84
1521.67	131.07
1522.03	133.12
1522.39	247.80
1522.76	628.73
1523.12	163.84
1523.49	249.85
1523.85	202.75
1524.21	440.31
1524.58	137.21
1524.94	407.55
1525.30	77.82
1525.67	286.72
1526.03	376.83
1526.39	423.93
1526.76	268.28
1527.12	81.92
1527.48	202.75
1527.85	235.52
1528.21	280.57
1528.57	204.80
1528.94	331.77
1529.30	215.04
1529.66	161.79
1530.03	79.87
1530.39	243.71
1530.75	438.27
1531.12	139.26
1531.48	319.48
1531.84	-36.86
1532.21	196.61
1532.57	319.48
1532.93	385.02
1533.29	382.97
1533.66	395.26
1534.02	-65.53
1534.38	247.80
1534.75	73.73
1535.11	88.06
1535.47	221.18
1535.83	276.48
1536.20	116.73
1536.56	180.22
1536.92	272.38
1537.28	212.99
1537.65	286.72
1538.01	403.45
1538.37	387.07
1538.74	104.45
1539.10	141.31
1539.46	161.79
1539.82	190.46
1540.19	452.60
1540.55	126.97
1540.91	342.01
1541.27	180.22
1541.63	370.68
1542.00	-45.06
1542.36	67.58
1542.72	258.04
1543.08	378.87
1543.45	215.04
1543.81	198.65
1544.17	-45.06
1544.53	458.75
1544.89	57.34
1545.26	126.97
1545.62	96.25
1545.98	157.69
1546.34	155.65
1546.70	204.80
1547.07	354.30
1547.43	272.38
1547.79	67.58
1548.15	442.36
1548.51	231.42
1548.88	28.67
1549.24	102.40
1549.60	98.30
1549.96	-4.10
1550.32	45.06
1550.68	79.87
1551.05	65.53
1551.41	88.06
1551.77	194.56
1552.13	311.29
1552.49	360.44
1552.85	79.87
1553.22	288.76
1553.58	258.04
1553.94	176.13
1554.30	260.09
1554.66	239.61
1555.02	129.02
1555.38	278.52
1555.75	86.01
1556.11	339.96
1556.47	219.13
1556.83	-61.44
1557.19	307.20
1557.55	174.08
1557.91	38.91
1558.27	335.87
1558.63	143.36
1559.00	102.40
1559.36	34.82
1559.72	47.10
1560.08	337.91
1560.44	149.50
1560.80	237.56
1561.16	434.17
1561.52	-81.92
1561.88	104.45
1562.24	118.78
1562.60	204.80
1562.97	106.49
1563.33	-79.87
1563.69	157.69
1564.05	-8.19
1564.41	133.12
1564.77	-30.72
1565.13	223.23
1565.49	79.87
1565.85	174.08
1566.21	202.75
1566.57	131.07
1566.93	112.64
1567.29	172.03
1567.65	397.31
1568.01	276.48
1568.37	96.25
1568.73	147.45
1569.09	118.78
1569.45	270.33
1569.82	233.47
1570.18	454.65
1570.54	-626.68
1570.90	278.52
1571.26	63.49
1571.62	186.37
1571.98	-112.64
1572.34	-59.39
1572.70	94.21
1573.06	188.41
1573.42	-135.17
1573.78	126.97
1574.14	206.84
1574.50	32.77
1574.86	229.37
1575.22	104.45
1575.58	294.91
1575.94	192.51
1576.30	368.63
1576.66	253.95
1577.01	176.13
1577.37	124.93
1577.73	69.63
1578.09	49.15
1578.45	131.07
1578.81	-63.49
1579.17	196.61
1579.53	194.56
1579.89	98.30
1580.25	260.09
1580.61	57.34
1580.97	-36.86
1581.33	167.93
1581.69	36.86
1582.05	61.44
1582.41	-43.01
1582.77	-57.34
1583.13	8.19
1583.49	129.02
1583.84	169.98
1584.20	126.97
1584.56	36.86
1584.92	-47.10
1585.28	229.37
1585.64	129.02
1586.00	221.18
1586.36	65.53
1586.72	63.49
1587.08	65.53
1587.44	-45.06
1587.79	57.34
1588.15	174.08
1588.51	202.75
1588.87	321.53
1589.23	165.89
1589.59	-30.72
1589.95	206.84
1590.31	-65.53
1590.66	120.83
1591.02	294.91
1591.38	163.84
1591.74	-32.77
1592.10	346.11
1592.46	73.73
1592.82	137.21
1593.18	143.36
1593.53	-106.49
1593.89	-43.01
1594.25	88.06
1594.61	14.34
1594.97	270.33
1595.33	151.55
1595.68	-145.41
1596.04	309.24
1596.40	57.34
1596.76	161.79
1597.12	83.97
1597.48	14.34
1597.83	-77.82
1598.19	-69.63
1598.55	-47.10
1598.91	16.38
1599.27	264.19
1599.62	92.16
1599.98	61.44
1600.34	4.10
1600.70	-129.02
1601.06	118.78
1601.41	47.10
1601.77	-247.80
1602.13	241.66
1602.49	212.99
1602.85	-36.86
1603.20	184.32
1603.56	131.07
1603.92	40.96
1604.28	18.43
1604.63	110.59
1604.99	475.13
1605.35	114.69
1605.71	67.58
1606.06	-36.86
1606.42	120.83
1606.78	108.54
1607.14	137.21
1607.49	88.06
1607.85	-55.30
1608.21	57.34
1608.57	116.73
1608.92	-98.30
1609.28	88.06
1609.64	34.82
1610.00	18.43
1610.35	135.17
1610.71	182.27
1611.07	79.87
1611.43	-159.74
1611.78	77.82
1612.14	-28.67
1612.50	-36.86
1612.85	116.73
1613.21	184.32
1613.57	110.59
1613.92	-108.54
1614.28	-14.34
1614.64	96.25
1615.00	34.82
1615.35	-45.06
1615.71	22.53
1616.07	-26.62
1616.42	180.22
1616.78	212.99
1617.14	-18.43
1617.49	198.65
1617.85	86.01
1618.21	141.31
1618.56	124.93
1618.92	159.74
1619.28	131.07
1619.63	122.88
1619.99	-53.25
1620.35	176.13
1620.70	-151.55
1621.06	36.86
1621.42	-100.35
1621.77	22.53
1622.13	192.51
1622.48	69.63
1622.84	-18.43
1623.20	210.94
1623.55	88.06
1623.91	-38.91
1624.27	118.78
1624.62	-14.34
1624.98	36.86
1625.33	106.49
1625.69	114.69
1626.05	180.22
1626.40	-14.34
1626.76	-2.05
1627.11	116.73
1627.47	75.77
1627.83	8.19
1628.18	124.93
1628.54	-120.83
1628.89	184.32
1629.25	-32.77
1629.61	-131.07
1629.96	18.43
1630.32	10.24
1630.67	59.39
1631.03	-47.10
1631.38	184.32
1631.74	28.67
1632.10	292.86
1632.45	40.96
1632.81	-837.62
1633.16	-49.15
1633.52	65.53
1633.87	-129.02
1634.23	-18.43
1634.58	143.36
1634.94	57.34
1635.30	215.04
1635.65	79.87
1636.01	57.34
1636.36	112.64
1636.72	114.69
1637.07	45.06
1637.43	16.38
1637.78	-36.86
1638.14	65.53
1638.49	-215.04
1638.85	32.77
1639.20	126.97
1639.56	94.21
1639.91	59.39
1640.27	129.02
1640.62	-57.34
1640.98	-382.97
1641.33	-63.49
1641.69	2.05
1642.04	61.44
1642.40	-18.43
1642.75	-49.15
1643.11	77.82
1643.46	-208.89
1643.82	47.10
1644.17	30.72
1644.53	-47.10
1644.88	-40.96
1645.24	94.21
1645.59	26.62
1645.94	176.13
1646.30	-153.60
1646.65	-161.79
1647.01	-174.08
1647.36	57.34
1647.72	149.50
1648.07	69.63
1648.43	-38.91
1648.78	-51.20
1649.14	-292.86
1649.49	98.30
1649.84	182.27
1650.20	-10.24
1650.55	155.65
1650.91	77.82
1651.26	10.24
1651.61	-36.86
1651.97	-262.14
1652.32	-2.05
1652.68	79.87
1653.03	73.73
1653.39	20.48
1653.74	-131.07
1654.09	-57.34
1654.45	34.82
1654.80	4.10
1655.16	-126.97
1655.51	-6.14
1655.86	20.48
1656.22	-32.77
1656.57	96.25
1656.92	159.74
1657.28	77.82
1657.63	45.06
1657.99	-57.34
1658.34	0.00
1658.69	129.02
1659.05	159.74
1659.40	-43.01
1659.75	-227.32
1660.11	38.91
1660.46	116.73
1660.81	20.48
1661.17	-157.69
1661.52	-223.23
1661.87	-12.29
1662.23	36.86
1662.58	-141.31
1662.93	-83.97
1663.29	167.93
1663.64	-83.97
1663.99	92.16
1664.35	-4.10
1664.70	112.64
1665.05	79.87
1665.41	45.06
1665.76	161.79
1666.11	47.10
1666.47	180.22
1666.82	98.30
1667.17	6.14
1667.52	51.20
1667.88	249.85
1668.23	-165.89
1668.58	-102.40
1668.94	38.91
1669.29	-6.14
1669.64	-92.16
1670.00	165.89
1670.35	153.60
1670.70	-57.34
1671.05	-16.38
1671.41	417.79
1671.76	18.43
1672.11	184.32
1672.46	30.72
1672.82	67.58
1673.17	143.36
1673.52	61.44
1673.87	45.06
1674.23	-116.73
1674.58	247.80
1674.93	-81.92
1675.28	0.00
1675.64	-77.82
1675.99	-143.36
1676.34	178.17
1676.69	-102.40
1677.05	-139.26
1677.40	77.82
1677.75	-57.34
1678.10	100.35
1678.45	-67.58
1678.81	96.25
1679.16	182.27
1679.51	20.48
1679.86	-159.74
1680.21	-20.48
1680.57	45.06
1680.92	241.66
1681.27	258.04
1681.62	-106.49
1681.97	16.38
1682.33	55.30
1682.68	12.29
1683.03	-59.39
1683.38	-227.32
1683.73	65.53
1684.08	83.97
1684.44	219.13
1684.79	-120.83
1685.14	169.98
1685.49	-83.97
1685.84	-331.77
1686.19	147.45
1686.55	106.49
1686.90	-2.05
1687.25	-53.25
1687.60	90.11
1687.95	-86.01
1688.30	-57.34
1688.65	413.69
1689.01	335.87
1689.36	-71.68
1689.71	55.30
1690.06	-30.72
1690.41	-88.06
1690.76	26.62
1691.11	-143.36
1691.46	81.92
1691.82	88.06
1692.17	-110.59
1692.52	-223.23
1692.87	122.88
1693.22	-53.25
1693.57	-102.40
1693.92	-65.53
1694.27	71.68
1694.62	-51.20
1694.97	122.88
1695.33	34.82
1695.68	118.78
1696.03	34.82
1696.38	202.75
1696.73	143.36
1697.08	96.25
1697.43	-36.86
1697.78	-90.11
1698.13	47.10
1698.48	-122.88
1698.83	137.21
1699.18	133.12
1699.53	-32.77
1699.88	116.73
1700.24	-274.43
1700.59	-219.13
1700.94	223.23
1701.29	-49.15
1701.64	153.60
1701.99	-55.30
1702.34	139.26
1702.69	131.07
1703.04	104.45
1703.39	71.68
1703.74	4.10
1704.09	26.62
1704.44	-118.78
1704.79	-10.24
1705.14	-40.96
1705.49	124.93
1705.84	176.13
1706.19	-6.14
1706.54	116.73
1706.89	-38.91
1707.24	-247.80
1707.59	-63.49
1707.94	104.45
1708.29	-188.41
1708.64	-8.19
1708.99	-2.05
1709.34	-12.29
1709.69	200.70
1710.04	92.16
1710.39	-47.10
1710.74	106.49
1711.09	196.60
1711.44	26.62
1711.79	-49.15
1712.14	-67.58
1712.49	86.01
1712.84	223.23
1713.18	-239.61
1713.53	63.49
1713.88	71.68
1714.23	108.54
1714.58	182.27
1714.93	28.67
1715.28	-186.37
1715.63	-12.29
1715.98	63.49
1716.33	67.58
1716.68	88.06
1717.03	186.37
1717.38	-34.82
1717.73	-151.55
1718.08	-63.49
1718.42	-26.62
1718.77	-174.08
1719.12	-120.83
1719.47	30.72
1719.82	83.97
1720.17	180.22
1720.52	43.01
1720.87	-122.88
1721.22	-65.53
1721.57	153.60
1721.91	292.86
1722.26	176.13
1722.61	124.93
1722.96	-98.30
1723.31	-120.83
1723.66	-10.24
1724.01	-53.25
1724.36	81.92
1724.70	-4.10
1725.05	88.06
1725.40	8.19
1725.75	-40.96
1726.10	176.13
1726.45	-90.11
1726.80	-225.28
1727.14	59.39
1727.49	-92.16
1727.84	-157.69
1728.19	71.68
1728.54	143.36
1728.89	63.49
1729.23	8.19
1729.58	102.40
1729.93	188.41
1730.28	176.13
1730.63	-26.62
1730.97	38.91
1731.32	167.93
1731.67	59.39
1732.02	-16.38
1732.37	-204.80
1732.72	-147.45
1733.06	45.06
1733.41	49.15
1733.76	43.01
1734.11	-49.15
1734.46	-69.63
1734.80	-135.17
1735.15	34.82
1735.50	221.18
1735.85	145.41
1736.19	81.92
1736.54	-32.77
>>>>>End Processed Spectral Data<<<<<
